File: Lambda max, Extincion max y Area/oro/9/1.62e-4.txt
"1.62e-4 - Dataset 205825"
"Wavelength nm."	"Abs."
200,00	2,712
200,50	2,712
201,00	2,712
201,50	2,712
202,00	2,712
202,50	2,712
203,00	2,712
203,50	2,712
204,00	2,712
204,50	2,598
205,00	2,766
205,50	2,592
206,00	2,716
206,50	3,140
207,00	3,452
207,50	3,718
208,00	3,818
208,50	3,873
209,00	3,571
209,50	3,826
210,00	2,841
210,50	2,999
211,00	2,782
211,50	2,070
212,00	2,505
212,50	2,900
213,00	2,656
213,50	1,883
214,00	1,788
214,50	2,330
215,00	3,041
215,50	2,748
216,00	2,827
216,50	2,992
217,00	2,778
217,50	3,095
218,00	3,093
218,50	3,035
219,00	2,949
219,50	3,234
220,00	3,683
220,50	3,377
221,00	2,641
221,50	2,359
222,00	2,058
222,50	2,367
223,00	2,003
223,50	1,982
224,00	1,998
224,50	2,103
225,00	2,636
225,50	2,703
226,00	3,033
226,50	2,852
227,00	3,128
227,50	2,565
228,00	2,180
228,50	1,756
229,00	1,829
229,50	2,317
230,00	1,791
230,50	2,390
231,00	2,590
231,50	3,068
232,00	2,894
232,50	2,832
233,00	2,829
233,50	2,089
234,00	2,546
234,50	1,932
235,00	1,433
235,50	1,044
236,00	1,289
236,50	2,149
237,00	3,148
237,50	3,570
238,00	3,858
238,50	3,985
239,00	4,158
239,50	3,941
240,00	3,528
240,50	2,927
241,00	2,796
241,50	1,960
242,00	1,192
242,50	0,205
243,00	0,330
243,50	0,163
244,00	0,409
244,50	1,465
245,00	2,086
245,50	2,023
246,00	2,472
246,50	2,151
247,00	3,210
247,50	3,061
248,00	3,551
248,50	3,236
249,00	3,327
249,50	3,049
250,00	2,487
250,50	2,075
251,00	2,009
251,50	1,964
252,00	1,966
252,50	2,698
253,00	2,854
253,50	2,582
254,00	2,444
254,50	2,523
255,00	2,854
255,50	2,410
256,00	2,594
256,50	2,021
257,00	1,687
257,50	1,493
258,00	0,759
258,50	0,207
259,00	0,738
259,50	1,024
260,00	1,038
260,50	1,814
261,00	2,272
261,50	2,998
262,00	3,608
262,50	4,170
263,00	4,598
263,50	4,433
264,00	4,235
264,50	3,948
265,00	3,609
265,50	4,146
266,00	3,881
266,50	4,187
267,00	4,368
267,50	3,800
268,00	3,583
268,50	3,300
269,00	2,697
269,50	2,862
270,00	2,035
270,50	1,246
271,00	1,487
271,50	0,688
272,00	0,993
272,50	1,393
273,00	1,869
273,50	2,473
274,00	2,756
274,50	2,916
275,00	2,639
275,50	2,388
276,00	2,009
276,50	1,451
277,00	0,781
277,50	0,669
278,00	0,037
278,50	0,024
279,00	0,139
279,50	-0,110
280,00	0,280
280,50	0,314
281,00	0,317
281,50	0,319
282,00	0,313
282,50	0,156
283,00	0,085
283,50	0,180
284,00	0,179
284,50	0,185
285,00	0,172
285,50	0,182
286,00	0,191
286,50	0,203
287,00	0,193
287,50	0,185
288,00	0,181
288,50	0,184
289,00	0,189
289,50	0,187
290,00	0,186
290,50	0,187
291,00	0,188
291,50	0,187
292,00	0,187
292,50	0,186
293,00	0,186
293,50	0,185
294,00	0,184
294,50	0,185
295,00	0,184
295,50	0,183
296,00	0,183
296,50	0,183
297,00	0,184
297,50	0,183
298,00	0,184
298,50	0,184
299,00	0,184
299,50	0,184
300,00	0,183
300,50	0,182
301,00	0,181
301,50	0,180
302,00	0,179
302,50	0,179
303,00	0,178
303,50	0,178
304,00	0,178
304,50	0,178
305,00	0,177
305,50	0,177
306,00	0,177
306,50	0,177
307,00	0,176
307,50	0,176
308,00	0,175
308,50	0,175
309,00	0,174
309,50	0,173
310,00	0,173
310,50	0,173
311,00	0,172
311,50	0,172
312,00	0,172
312,50	0,171
313,00	0,171
313,50	0,171
314,00	0,171
314,50	0,170
315,00	0,170
315,50	0,169
316,00	0,169
316,50	0,169
317,00	0,168
317,50	0,168
318,00	0,167
318,50	0,167
319,00	0,167
319,50	0,166
320,00	0,166
320,50	0,166
321,00	0,166
321,50	0,165
322,00	0,165
322,50	0,165
323,00	0,165
323,50	0,164
324,00	0,164
324,50	0,164
325,00	0,164
325,50	0,163
326,00	0,163
326,50	0,163
327,00	0,162
327,50	0,162
328,00	0,161
328,50	0,161
329,00	0,161
329,50	0,160
330,00	0,160
330,50	0,160
331,00	0,160
331,50	0,160
332,00	0,160
332,50	0,160
333,00	0,160
333,50	0,160
334,00	0,160
334,50	0,160
335,00	0,160
335,50	0,159
336,00	0,159
336,50	0,159
337,00	0,158
337,50	0,158
338,00	0,158
338,50	0,158
339,00	0,158
339,50	0,157
340,00	0,157
340,50	0,157
341,00	0,157
341,50	0,157
342,00	0,157
342,50	0,156
343,00	0,156
343,50	0,156
344,00	0,156
344,50	0,156
345,00	0,156
345,50	0,156
346,00	0,156
346,50	0,156
347,00	0,156
347,50	0,155
348,00	0,155
348,50	0,155
349,00	0,155
349,50	0,155
350,00	0,155
350,50	0,155
351,00	0,155
351,50	0,155
352,00	0,154
352,50	0,154
353,00	0,154
353,50	0,154
354,00	0,154
354,50	0,154
355,00	0,154
355,50	0,154
356,00	0,153
356,50	0,153
357,00	0,153
357,50	0,153
358,00	0,153
358,50	0,153
359,00	0,153
359,50	0,153
360,00	0,152
360,50	0,152
361,00	0,152
361,50	0,152
362,00	0,152
362,50	0,152
363,00	0,152
363,50	0,152
364,00	0,151
364,50	0,151
365,00	0,151
365,50	0,151
366,00	0,151
366,50	0,151
367,00	0,151
367,50	0,151
368,00	0,151
368,50	0,151
369,00	0,151
369,50	0,151
370,00	0,151
370,50	0,151
371,00	0,150
371,50	0,150
372,00	0,150
372,50	0,150
373,00	0,150
373,50	0,150
374,00	0,149
374,50	0,149
375,00	0,149
375,50	0,149
376,00	0,149
376,50	0,149
377,00	0,148
377,50	0,148
378,00	0,148
378,50	0,148
379,00	0,148
379,50	0,148
380,00	0,148
380,50	0,147
381,00	0,147
381,50	0,147
382,00	0,147
382,50	0,147
383,00	0,146
383,50	0,146
384,00	0,146
384,50	0,146
385,00	0,146
385,50	0,145
386,00	0,145
386,50	0,145
387,00	0,145
387,50	0,145
388,00	0,145
388,50	0,144
389,00	0,144
389,50	0,144
390,00	0,144
390,50	0,144
391,00	0,144
391,50	0,143
392,00	0,143
392,50	0,143
393,00	0,143
393,50	0,143
394,00	0,143
394,50	0,142
395,00	0,142
395,50	0,142
396,00	0,142
396,50	0,142
397,00	0,141
397,50	0,141
398,00	0,141
398,50	0,141
399,00	0,141
399,50	0,141
400,00	0,141
400,50	0,141
401,00	0,141
401,50	0,140
402,00	0,140
402,50	0,140
403,00	0,140
403,50	0,140
404,00	0,140
404,50	0,139
405,00	0,139
405,50	0,139
406,00	0,139
406,50	0,139
407,00	0,139
407,50	0,139
408,00	0,139
408,50	0,139
409,00	0,138
409,50	0,138
410,00	0,138
410,50	0,138
411,00	0,138
411,50	0,138
412,00	0,138
412,50	0,138
413,00	0,137
413,50	0,137
414,00	0,137
414,50	0,137
415,00	0,137
415,50	0,137
416,00	0,137
416,50	0,137
417,00	0,137
417,50	0,137
418,00	0,137
418,50	0,137
419,00	0,137
419,50	0,137
420,00	0,137
420,50	0,137
421,00	0,136
421,50	0,136
422,00	0,136
422,50	0,136
423,00	0,136
423,50	0,136
424,00	0,136
424,50	0,136
425,00	0,136
425,50	0,136
426,00	0,136
426,50	0,136
427,00	0,136
427,50	0,136
428,00	0,136
428,50	0,135
429,00	0,135
429,50	0,135
430,00	0,135
430,50	0,135
431,00	0,135
431,50	0,135
432,00	0,135
432,50	0,135
433,00	0,135
433,50	0,135
434,00	0,135
434,50	0,135
435,00	0,135
435,50	0,135
436,00	0,135
436,50	0,135
437,00	0,135
437,50	0,135
438,00	0,135
438,50	0,135
439,00	0,135
439,50	0,135
440,00	0,135
440,50	0,135
441,00	0,135
441,50	0,135
442,00	0,135
442,50	0,135
443,00	0,135
443,50	0,135
444,00	0,135
444,50	0,135
445,00	0,135
445,50	0,135
446,00	0,135
446,50	0,135
447,00	0,136
447,50	0,136
448,00	0,136
448,50	0,136
449,00	0,136
449,50	0,136
450,00	0,136
450,50	0,136
451,00	0,136
451,50	0,136
452,00	0,136
452,50	0,137
453,00	0,137
453,50	0,137
454,00	0,137
454,50	0,137
455,00	0,137
455,50	0,137
456,00	0,137
456,50	0,138
457,00	0,138
457,50	0,138
458,00	0,138
458,50	0,138
459,00	0,138
459,50	0,138
460,00	0,139
460,50	0,139
461,00	0,139
461,50	0,139
462,00	0,139
462,50	0,139
463,00	0,140
463,50	0,140
464,00	0,140
464,50	0,140
465,00	0,141
465,50	0,141
466,00	0,141
466,50	0,142
467,00	0,142
467,50	0,142
468,00	0,143
468,50	0,143
469,00	0,143
469,50	0,143
470,00	0,144
470,50	0,144
471,00	0,144
471,50	0,145
472,00	0,145
472,50	0,145
473,00	0,146
473,50	0,146
474,00	0,147
474,50	0,147
475,00	0,147
475,50	0,148
476,00	0,148
476,50	0,149
477,00	0,149
477,50	0,150
478,00	0,150
478,50	0,151
479,00	0,151
479,50	0,152
480,00	0,152
480,50	0,153
481,00	0,153
481,50	0,154
482,00	0,154
482,50	0,155
483,00	0,156
483,50	0,156
484,00	0,157
484,50	0,158
485,00	0,159
485,50	0,159
486,00	0,160
486,50	0,161
487,00	0,161
487,50	0,162
488,00	0,163
488,50	0,164
489,00	0,165
489,50	0,165
490,00	0,166
490,50	0,167
491,00	0,168
491,50	0,169
492,00	0,170
492,50	0,171
493,00	0,172
493,50	0,173
494,00	0,174
494,50	0,175
495,00	0,176
495,50	0,177
496,00	0,178
496,50	0,179
497,00	0,180
497,50	0,181
498,00	0,182
498,50	0,183
499,00	0,184
499,50	0,185
500,00	0,186
500,50	0,187
501,00	0,188
501,50	0,189
502,00	0,190
502,50	0,191
503,00	0,192
503,50	0,192
504,00	0,193
504,50	0,194
505,00	0,195
505,50	0,196
506,00	0,197
506,50	0,198
507,00	0,199
507,50	0,200
508,00	0,201
508,50	0,202
509,00	0,202
509,50	0,203
510,00	0,204
510,50	0,205
511,00	0,205
511,50	0,206
512,00	0,207
512,50	0,207
513,00	0,208
513,50	0,208
514,00	0,209
514,50	0,209
515,00	0,210
515,50	0,210
516,00	0,211
516,50	0,211
517,00	0,211
517,50	0,211
518,00	0,212
518,50	0,212
519,00	0,212
519,50	0,212
520,00	0,212
520,50	0,212
521,00	0,211
521,50	0,211
522,00	0,211
522,50	0,211
523,00	0,210
523,50	0,210
524,00	0,210
524,50	0,209
525,00	0,209
525,50	0,208
526,00	0,207
526,50	0,207
527,00	0,206
527,50	0,205
528,00	0,204
528,50	0,204
529,00	0,203
529,50	0,202
530,00	0,201
530,50	0,200
531,00	0,199
531,50	0,198
532,00	0,197
532,50	0,195
533,00	0,194
533,50	0,193
534,00	0,192
534,50	0,191
535,00	0,189
535,50	0,188
536,00	0,187
536,50	0,185
537,00	0,184
537,50	0,182
538,00	0,181
538,50	0,179
539,00	0,178
539,50	0,176
540,00	0,175
540,50	0,173
541,00	0,172
541,50	0,170
542,00	0,168
542,50	0,167
543,00	0,165
543,50	0,163
544,00	0,162
544,50	0,160
545,00	0,158
545,50	0,157
546,00	0,155
546,50	0,153
547,00	0,152
547,50	0,150
548,00	0,148
548,50	0,147
549,00	0,145
549,50	0,144
550,00	0,142
550,50	0,140
551,00	0,139
551,50	0,137
552,00	0,136
552,50	0,134
553,00	0,133
553,50	0,131
554,00	0,130
554,50	0,128
555,00	0,127
555,50	0,125
556,00	0,124
556,50	0,122
557,00	0,121
557,50	0,119
558,00	0,118
558,50	0,117
559,00	0,115
559,50	0,114
560,00	0,112
560,50	0,111
561,00	0,110
561,50	0,108
562,00	0,107
562,50	0,106
563,00	0,105
563,50	0,103
564,00	0,102
564,50	0,101
565,00	0,100
565,50	0,098
566,00	0,097
566,50	0,096
567,00	0,095
567,50	0,094
568,00	0,093
568,50	0,092
569,00	0,091
569,50	0,090
570,00	0,089
570,50	0,088
571,00	0,087
571,50	0,086
572,00	0,085
572,50	0,084
573,00	0,083
573,50	0,082
574,00	0,082
574,50	0,081
575,00	0,080
575,50	0,079
576,00	0,078
576,50	0,078
577,00	0,077
577,50	0,076
578,00	0,075
578,50	0,075
579,00	0,074
579,50	0,073
580,00	0,073
580,50	0,072
581,00	0,071
581,50	0,071
582,00	0,070
582,50	0,069
583,00	0,069
583,50	0,068
584,00	0,067
584,50	0,067
585,00	0,066
585,50	0,065
586,00	0,065
586,50	0,064
587,00	0,064
587,50	0,063
588,00	0,063
588,50	0,062
589,00	0,061
589,50	0,061
590,00	0,060
590,50	0,060
591,00	0,059
591,50	0,059
592,00	0,058
592,50	0,058
593,00	0,057
593,50	0,057
594,00	0,057
594,50	0,056
595,00	0,056
595,50	0,055
596,00	0,055
596,50	0,054
597,00	0,054
597,50	0,054
598,00	0,053
598,50	0,053
599,00	0,052
599,50	0,052
600,00	0,052
600,50	0,051
601,00	0,051
601,50	0,051
602,00	0,050
602,50	0,050
603,00	0,050
603,50	0,049
604,00	0,049
604,50	0,048
605,00	0,048
605,50	0,048
606,00	0,047
606,50	0,047
607,00	0,047
607,50	0,047
608,00	0,046
608,50	0,046
609,00	0,046
609,50	0,045
610,00	0,045
610,50	0,045
611,00	0,045
611,50	0,044
612,00	0,044
612,50	0,044
613,00	0,044
613,50	0,043
614,00	0,043
614,50	0,043
615,00	0,043
615,50	0,042
616,00	0,042
616,50	0,042
617,00	0,042
617,50	0,041
618,00	0,041
618,50	0,041
619,00	0,041
619,50	0,040
620,00	0,040
620,50	0,040
621,00	0,040
621,50	0,039
622,00	0,039
622,50	0,039
623,00	0,039
623,50	0,039
624,00	0,038
624,50	0,038
625,00	0,038
625,50	0,038
626,00	0,038
626,50	0,038
627,00	0,037
627,50	0,037
628,00	0,037
628,50	0,037
629,00	0,037
629,50	0,037
630,00	0,036
630,50	0,036
631,00	0,036
631,50	0,036
632,00	0,036
632,50	0,035
633,00	0,035
633,50	0,035
634,00	0,035
634,50	0,035
635,00	0,035
635,50	0,034
636,00	0,034
636,50	0,034
637,00	0,034
637,50	0,034
638,00	0,034
638,50	0,034
639,00	0,033
639,50	0,033
640,00	0,033
640,50	0,033
641,00	0,033
641,50	0,033
642,00	0,033
642,50	0,033
643,00	0,032
643,50	0,032
644,00	0,032
644,50	0,032
645,00	0,032
645,50	0,032
646,00	0,032
646,50	0,032
647,00	0,032
647,50	0,031
648,00	0,031
648,50	0,031
649,00	0,031
649,50	0,031
650,00	0,031
650,50	0,031
651,00	0,031
651,50	0,031
652,00	0,031
652,50	0,031
653,00	0,030
653,50	0,030
654,00	0,030
654,50	0,030
655,00	0,030
655,50	0,030
656,00	0,030
656,50	0,029
657,00	0,029
657,50	0,029
658,00	0,029
658,50	0,029
659,00	0,029
659,50	0,029
660,00	0,029
660,50	0,029
661,00	0,029
661,50	0,028
662,00	0,028
662,50	0,028
663,00	0,028
663,50	0,028
664,00	0,028
664,50	0,028
665,00	0,028
665,50	0,028
666,00	0,028
666,50	0,028
667,00	0,028
667,50	0,028
668,00	0,028
668,50	0,028
669,00	0,028
669,50	0,028
670,00	0,028
670,50	0,027
671,00	0,027
671,50	0,027
672,00	0,027
672,50	0,027
673,00	0,027
673,50	0,027
674,00	0,027
674,50	0,027
675,00	0,027
675,50	0,027
676,00	0,027
676,50	0,027
677,00	0,026
677,50	0,026
678,00	0,026
678,50	0,026
679,00	0,026
679,50	0,026
680,00	0,026
680,50	0,026
681,00	0,026
681,50	0,026
682,00	0,026
682,50	0,026
683,00	0,026
683,50	0,026
684,00	0,026
684,50	0,025
685,00	0,025
685,50	0,025
686,00	0,025
686,50	0,025
687,00	0,025
687,50	0,025
688,00	0,025
688,50	0,025
689,00	0,025
689,50	0,025
690,00	0,025
690,50	0,025
691,00	0,025
691,50	0,025
692,00	0,025
692,50	0,025
693,00	0,025
693,50	0,025
694,00	0,025
694,50	0,025
695,00	0,024
695,50	0,024
696,00	0,024
696,50	0,024
697,00	0,024
697,50	0,024
698,00	0,024
698,50	0,024
699,00	0,024
699,50	0,024
700,00	0,024
700,50	0,024
701,00	0,024
701,50	0,024
702,00	0,024
702,50	0,024
703,00	0,024
703,50	0,024
704,00	0,024
704,50	0,024
705,00	0,024
705,50	0,024
706,00	0,024
706,50	0,024
707,00	0,024
707,50	0,023
708,00	0,023
708,50	0,023
709,00	0,023
709,50	0,023
710,00	0,023
710,50	0,023
711,00	0,023
711,50	0,023
712,00	0,023
712,50	0,023
713,00	0,023
713,50	0,023
714,00	0,023
714,50	0,023
715,00	0,023
715,50	0,023
716,00	0,023
716,50	0,023
717,00	0,022
717,50	0,022
718,00	0,022
718,50	0,022
719,00	0,022
719,50	0,022
720,00	0,022
720,50	0,022
721,00	0,022
721,50	0,022
722,00	0,022
722,50	0,022
723,00	0,022
723,50	0,022
724,00	0,022
724,50	0,022
725,00	0,022
725,50	0,022
726,00	0,022
726,50	0,022
727,00	0,022
727,50	0,022
728,00	0,022
728,50	0,022
729,00	0,022
729,50	0,022
730,00	0,022
730,50	0,022
731,00	0,022
731,50	0,022
732,00	0,021
732,50	0,021
733,00	0,021
733,50	0,021
734,00	0,021
734,50	0,021
735,00	0,021
735,50	0,021
736,00	0,021
736,50	0,021
737,00	0,021
737,50	0,021
738,00	0,021
738,50	0,021
739,00	0,021
739,50	0,021
740,00	0,021
740,50	0,021
741,00	0,021
741,50	0,021
742,00	0,021
742,50	0,021
743,00	0,021
743,50	0,021
744,00	0,021
744,50	0,021
745,00	0,021
745,50	0,021
746,00	0,021
746,50	0,021
747,00	0,021
747,50	0,021
748,00	0,021
748,50	0,021
749,00	0,021
749,50	0,020
750,00	0,020
750,50	0,020
751,00	0,020
751,50	0,020
752,00	0,020
752,50	0,020
753,00	0,020
753,50	0,020
754,00	0,020
754,50	0,020
755,00	0,020
755,50	0,020
756,00	0,020
756,50	0,020
757,00	0,020
757,50	0,020
758,00	0,020
758,50	0,020
759,00	0,020
759,50	0,020
760,00	0,020
760,50	0,020
761,00	0,020
761,50	0,020
762,00	0,020
762,50	0,020
763,00	0,020
763,50	0,020
764,00	0,020
764,50	0,019
765,00	0,020
765,50	0,020
766,00	0,020
766,50	0,020
767,00	0,019
767,50	0,019
768,00	0,019
768,50	0,019
769,00	0,019
769,50	0,019
770,00	0,019
770,50	0,019
771,00	0,019
771,50	0,019
772,00	0,019
772,50	0,019
773,00	0,019
773,50	0,018
774,00	0,018
774,50	0,018
775,00	0,018
775,50	0,018
776,00	0,018
776,50	0,018
777,00	0,018
777,50	0,018
778,00	0,018
778,50	0,018
779,00	0,018
779,50	0,018
780,00	0,018
780,50	0,018
781,00	0,018
781,50	0,018
782,00	0,018
782,50	0,018
783,00	0,018
783,50	0,018
784,00	0,018
784,50	0,018
785,00	0,018
785,50	0,018
786,00	0,018
786,50	0,018
787,00	0,018
787,50	0,018
788,00	0,018
788,50	0,018
789,00	0,018
789,50	0,018
790,00	0,018
790,50	0,018
791,00	0,018
791,50	0,018
792,00	0,018
792,50	0,018
793,00	0,018
793,50	0,018
794,00	0,018
794,50	0,018
795,00	0,018
795,50	0,018
796,00	0,018
796,50	0,018
797,00	0,018
797,50	0,018
798,00	0,018
798,50	0,018
799,00	0,018
799,50	0,018
800,00	0,018