File: Lambda max, Extincion max y Area/oro/3/5e-4.txt
"5e-4 - Dataset 225537"
"Wavelength nm."	"Abs."
200,00	3,050
200,50	3,050
201,00	3,050
201,50	3,050
202,00	3,050
202,50	3,050
203,00	3,050
203,50	3,050
204,00	3,050
204,50	2,509
205,00	2,384
205,50	2,288
206,00	1,816
206,50	2,382
207,00	2,356
207,50	2,278
208,00	2,530
208,50	3,113
209,00	3,410
209,50	3,620
210,00	4,176
210,50	4,355
211,00	4,251
211,50	4,359
212,00	4,446
212,50	3,441
213,00	3,134
213,50	2,446
214,00	2,772
214,50	2,732
215,00	2,709
215,50	2,262
216,00	1,926
216,50	2,254
217,00	2,641
217,50	3,051
218,00	3,534
218,50	3,117
219,00	2,798
219,50	2,727
220,00	2,498
220,50	1,999
221,00	1,562
221,50	1,476
222,00	2,140
222,50	2,183
223,00	2,295
223,50	2,149
224,00	2,482
224,50	3,260
225,00	3,399
225,50	2,862
226,00	2,402
226,50	2,381
227,00	2,360
227,50	3,042
228,00	2,777
228,50	2,517
229,00	2,625
229,50	3,067
230,00	3,656
230,50	3,499
231,00	3,070
231,50	3,136
232,00	3,129
232,50	2,669
233,00	1,959
233,50	0,726
234,00	0,727
234,50	0,820
235,00	0,354
235,50	0,338
236,00	-0,379
236,50	0,174
237,00	0,914
237,50	1,138
238,00	1,340
238,50	1,456
239,00	1,444
239,50	1,408
240,00	1,008
240,50	0,869
241,00	0,254
241,50	-0,146
242,00	0,649
242,50	0,916
243,00	1,070
243,50	1,111
244,00	1,299
244,50	1,454
245,00	1,777
245,50	1,528
246,00	1,907
246,50	2,236
247,00	2,222
247,50	1,648
248,00	1,136
248,50	1,327
249,00	0,854
249,50	1,568
250,00	2,312
250,50	2,625
251,00	2,682
251,50	2,609
252,00	2,332
252,50	1,379
253,00	1,723
253,50	1,068
254,00	1,631
254,50	1,635
255,00	0,964
255,50	0,797
256,00	1,262
256,50	1,711
257,00	1,531
257,50	2,007
258,00	1,876
258,50	1,403
259,00	1,407
259,50	1,356
260,00	1,080
260,50	0,697
261,00	0,469
261,50	0,430
262,00	0,533
262,50	0,834
263,00	0,940
263,50	1,646
264,00	1,937
264,50	1,889
265,00	1,722
265,50	1,643
266,00	1,346
266,50	1,076
267,00	0,944
267,50	1,040
268,00	0,941
268,50	0,700
269,00	0,341
269,50	0,592
270,00	0,361
270,50	0,781
271,00	0,707
271,50	0,705
272,00	0,698
272,50	0,537
273,00	0,372
273,50	0,322
274,00	-0,289
274,50	-0,210
275,00	-0,262
275,50	0,358
276,00	0,539
276,50	0,641
277,00	0,742
277,50	0,820
278,00	0,860
278,50	0,846
279,00	0,774
279,50	0,731
280,00	0,603
280,50	0,431
281,00	0,277
281,50	0,118
282,00	-0,191
282,50	0,206
283,00	0,199
283,50	0,233
284,00	0,256
284,50	0,238
285,00	0,248
285,50	0,234
286,00	0,226
286,50	-0,136
287,00	0,169
287,50	0,395
288,00	0,549
288,50	0,313
289,00	0,698
289,50	0,962
290,00	1,194
290,50	1,396
291,00	1,534
291,50	1,585
292,00	1,564
292,50	1,481
293,00	1,326
293,50	1,103
294,00	0,806
294,50	0,441
295,00	0,681
295,50	0,445
296,00	0,171
296,50	-0,108
297,00	0,247
297,50	0,191
298,00	0,209
298,50	0,234
299,00	0,229
299,50	0,216
300,00	0,219
300,50	0,222
301,00	0,223
301,50	0,228
302,00	0,231
302,50	0,237
303,00	0,236
303,50	0,237
304,00	0,237
304,50	0,239
305,00	0,241
305,50	0,231
306,00	0,229
306,50	0,225
307,00	0,220
307,50	0,218
308,00	0,219
308,50	0,213
309,00	0,213
309,50	0,215
310,00	0,215
310,50	0,215
311,00	0,215
311,50	0,215
312,00	0,215
312,50	0,218
313,00	0,219
313,50	0,214
314,00	0,216
314,50	0,216
315,00	0,215
315,50	0,213
316,00	0,215
316,50	0,212
317,00	0,211
317,50	0,210
318,00	0,208
318,50	0,210
319,00	0,208
319,50	0,204
320,00	0,204
320,50	0,203
321,00	0,202
321,50	0,201
322,00	0,201
322,50	0,200
323,00	0,200
323,50	0,201
324,00	0,199
324,50	0,201
325,00	0,203
325,50	0,205
326,00	0,207
326,50	0,211
327,00	0,209
327,50	0,205
328,00	0,204
328,50	0,202
329,00	0,200
329,50	0,198
330,00	0,196
330,50	0,194
331,00	0,193
331,50	0,190
332,00	0,191
332,50	0,192
333,00	0,191
333,50	0,192
334,00	0,195
334,50	0,195
335,00	0,193
335,50	0,192
336,00	0,191
336,50	0,189
337,00	0,189
337,50	0,190
338,00	0,190
338,50	0,191
339,00	0,190
339,50	0,190
340,00	0,191
340,50	0,191
341,00	0,191
341,50	0,190
342,00	0,190
342,50	0,187
343,00	0,187
343,50	0,188
344,00	0,187
344,50	0,189
345,00	0,192
345,50	0,193
346,00	0,194
346,50	0,194
347,00	0,193
347,50	0,192
348,00	0,192
348,50	0,190
349,00	0,189
349,50	0,187
350,00	0,186
350,50	0,185
351,00	0,184
351,50	0,185
352,00	0,186
352,50	0,188
353,00	0,188
353,50	0,187
354,00	0,187
354,50	0,187
355,00	0,186
355,50	0,185
356,00	0,185
356,50	0,185
357,00	0,185
357,50	0,186
358,00	0,186
358,50	0,185
359,00	0,184
359,50	0,185
360,00	0,186
360,50	0,184
361,00	0,183
361,50	0,182
362,00	0,182
362,50	0,181
363,00	0,179
363,50	0,180
364,00	0,182
364,50	0,183
365,00	0,183
365,50	0,183
366,00	0,183
366,50	0,182
367,00	0,183
367,50	0,183
368,00	0,183
368,50	0,181
369,00	0,181
369,50	0,180
370,00	0,177
370,50	0,177
371,00	0,176
371,50	0,177
372,00	0,178
372,50	0,178
373,00	0,177
373,50	0,177
374,00	0,177
374,50	0,177
375,00	0,177
375,50	0,177
376,00	0,176
376,50	0,176
377,00	0,173
377,50	0,172
378,00	0,171
378,50	0,171
379,00	0,170
379,50	0,171
380,00	0,171
380,50	0,171
381,00	0,169
381,50	0,170
382,00	0,170
382,50	0,171
383,00	0,172
383,50	0,173
384,00	0,173
384,50	0,175
385,00	0,174
385,50	0,175
386,00	0,174
386,50	0,175
387,00	0,174
387,50	0,174
388,00	0,172
388,50	0,172
389,00	0,171
389,50	0,171
390,00	0,171
390,50	0,172
391,00	0,174
391,50	0,173
392,00	0,174
392,50	0,175
393,00	0,175
393,50	0,174
394,00	0,173
394,50	0,172
395,00	0,171
395,50	0,171
396,00	0,170
396,50	0,169
397,00	0,169
397,50	0,168
398,00	0,169
398,50	0,169
399,00	0,168
399,50	0,168
400,00	0,168
400,50	0,168
401,00	0,168
401,50	0,167
402,00	0,167
402,50	0,166
403,00	0,167
403,50	0,166
404,00	0,166
404,50	0,166
405,00	0,167
405,50	0,166
406,00	0,165
406,50	0,165
407,00	0,164
407,50	0,165
408,00	0,165
408,50	0,166
409,00	0,166
409,50	0,166
410,00	0,166
410,50	0,166
411,00	0,166
411,50	0,166
412,00	0,166
412,50	0,166
413,00	0,166
413,50	0,165
414,00	0,165
414,50	0,164
415,00	0,164
415,50	0,164
416,00	0,165
416,50	0,164
417,00	0,162
417,50	0,162
418,00	0,161
418,50	0,162
419,00	0,162
419,50	0,162
420,00	0,162
420,50	0,163
421,00	0,163
421,50	0,163
422,00	0,164
422,50	0,163
423,00	0,163
423,50	0,163
424,00	0,163
424,50	0,161
425,00	0,161
425,50	0,160
426,00	0,160
426,50	0,161
427,00	0,161
427,50	0,161
428,00	0,161
428,50	0,162
429,00	0,162
429,50	0,162
430,00	0,162
430,50	0,161
431,00	0,161
431,50	0,160
432,00	0,161
432,50	0,160
433,00	0,160
433,50	0,160
434,00	0,160
434,50	0,161
435,00	0,161
435,50	0,161
436,00	0,161
436,50	0,161
437,00	0,162
437,50	0,162
438,00	0,162
438,50	0,162
439,00	0,163
439,50	0,162
440,00	0,162
440,50	0,163
441,00	0,162
441,50	0,160
442,00	0,160
442,50	0,160
443,00	0,160
443,50	0,159
444,00	0,159
444,50	0,159
445,00	0,159
445,50	0,158
446,00	0,159
446,50	0,159
447,00	0,159
447,50	0,159
448,00	0,159
448,50	0,160
449,00	0,161
449,50	0,162
450,00	0,163
450,50	0,164
451,00	0,165
451,50	0,166
452,00	0,166
452,50	0,166
453,00	0,167
453,50	0,167
454,00	0,166
454,50	0,166
455,00	0,165
455,50	0,165
456,00	0,165
456,50	0,165
457,00	0,165
457,50	0,165
458,00	0,165
458,50	0,166
459,00	0,166
459,50	0,166
460,00	0,165
460,50	0,166
461,00	0,166
461,50	0,166
462,00	0,167
462,50	0,167
463,00	0,168
463,50	0,169
464,00	0,169
464,50	0,170
465,00	0,170
465,50	0,171
466,00	0,172
466,50	0,173
467,00	0,173
467,50	0,172
468,00	0,173
468,50	0,174
469,00	0,173
469,50	0,174
470,00	0,174
470,50	0,174
471,00	0,174
471,50	0,174
472,00	0,174
472,50	0,175
473,00	0,176
473,50	0,177
474,00	0,178
474,50	0,178
475,00	0,178
475,50	0,179
476,00	0,180
476,50	0,181
477,00	0,182
477,50	0,183
478,00	0,183
478,50	0,185
479,00	0,185
479,50	0,186
480,00	0,188
480,50	0,189
481,00	0,189
481,50	0,190
482,00	0,190
482,50	0,190
483,00	0,191
483,50	0,192
484,00	0,193
484,50	0,194
485,00	0,195
485,50	0,196
486,00	0,197
486,50	0,199
487,00	0,200
487,50	0,202
488,00	0,203
488,50	0,204
489,00	0,205
489,50	0,206
490,00	0,208
490,50	0,209
491,00	0,211
491,50	0,212
492,00	0,213
492,50	0,214
493,00	0,216
493,50	0,217
494,00	0,219
494,50	0,221
495,00	0,222
495,50	0,223
496,00	0,225
496,50	0,227
497,00	0,229
497,50	0,230
498,00	0,232
498,50	0,233
499,00	0,235
499,50	0,236
500,00	0,237
500,50	0,239
501,00	0,240
501,50	0,242
502,00	0,244
502,50	0,247
503,00	0,248
503,50	0,249
504,00	0,251
504,50	0,253
505,00	0,254
505,50	0,255
506,00	0,256
506,50	0,257
507,00	0,259
507,50	0,260
508,00	0,261
508,50	0,262
509,00	0,263
509,50	0,264
510,00	0,265
510,50	0,267
511,00	0,268
511,50	0,269
512,00	0,270
512,50	0,271
513,00	0,272
513,50	0,274
514,00	0,275
514,50	0,276
515,00	0,276
515,50	0,277
516,00	0,278
516,50	0,278
517,00	0,278
517,50	0,278
518,00	0,278
518,50	0,279
519,00	0,280
519,50	0,280
520,00	0,279
520,50	0,280
521,00	0,279
521,50	0,281
522,00	0,281
522,50	0,280
523,00	0,280
523,50	0,280
524,00	0,280
524,50	0,279
525,00	0,279
525,50	0,278
526,00	0,277
526,50	0,276
527,00	0,274
527,50	0,273
528,00	0,271
528,50	0,270
529,00	0,268
529,50	0,266
530,00	0,265
530,50	0,263
531,00	0,262
531,50	0,260
532,00	0,258
532,50	0,257
533,00	0,255
533,50	0,253
534,00	0,251
534,50	0,249
535,00	0,248
535,50	0,246
536,00	0,245
536,50	0,243
537,00	0,239
537,50	0,237
538,00	0,235
538,50	0,233
539,00	0,232
539,50	0,231
540,00	0,228
540,50	0,227
541,00	0,225
541,50	0,223
542,00	0,221
542,50	0,220
543,00	0,217
543,50	0,215
544,00	0,214
544,50	0,211
545,00	0,209
545,50	0,206
546,00	0,205
546,50	0,203
547,00	0,200
547,50	0,198
548,00	0,195
548,50	0,193
549,00	0,191
549,50	0,189
550,00	0,186
550,50	0,183
551,00	0,181
551,50	0,178
552,00	0,176
552,50	0,174
553,00	0,171
553,50	0,169
554,00	0,168
554,50	0,166
555,00	0,163
555,50	0,162
556,00	0,161
556,50	0,158
557,00	0,157
557,50	0,155
558,00	0,153
558,50	0,151
559,00	0,149
559,50	0,146
560,00	0,144
560,50	0,142
561,00	0,140
561,50	0,138
562,00	0,136
562,50	0,135
563,00	0,133
563,50	0,131
564,00	0,129
564,50	0,127
565,00	0,126
565,50	0,125
566,00	0,123
566,50	0,121
567,00	0,120
567,50	0,118
568,00	0,117
568,50	0,115
569,00	0,113
569,50	0,111
570,00	0,110
570,50	0,108
571,00	0,106
571,50	0,104
572,00	0,103
572,50	0,102
573,00	0,101
573,50	0,100
574,00	0,099
574,50	0,098
575,00	0,097
575,50	0,096
576,00	0,094
576,50	0,093
577,00	0,091
577,50	0,090
578,00	0,088
578,50	0,087
579,00	0,085
579,50	0,084
580,00	0,083
580,50	0,083
581,00	0,082
581,50	0,081
582,00	0,081
582,50	0,080
583,00	0,080
583,50	0,079
584,00	0,078
584,50	0,077
585,00	0,076
585,50	0,075
586,00	0,074
586,50	0,072
587,00	0,071
587,50	0,069
588,00	0,067
588,50	0,066
589,00	0,065
589,50	0,064
590,00	0,064
590,50	0,063
591,00	0,062
591,50	0,061
592,00	0,061
592,50	0,060
593,00	0,060
593,50	0,060
594,00	0,058
594,50	0,057
595,00	0,056
595,50	0,055
596,00	0,055
596,50	0,054
597,00	0,053
597,50	0,053
598,00	0,053
598,50	0,051
599,00	0,051
599,50	0,050
600,00	0,050
600,50	0,050
601,00	0,050
601,50	0,049
602,00	0,049
602,50	0,049
603,00	0,048
603,50	0,047
604,00	0,046
604,50	0,045
605,00	0,045
605,50	0,044
606,00	0,043
606,50	0,042
607,00	0,041
607,50	0,040
608,00	0,040
608,50	0,039
609,00	0,039
609,50	0,038
610,00	0,038
610,50	0,037
611,00	0,036
611,50	0,035
612,00	0,035
612,50	0,035
613,00	0,035
613,50	0,034
614,00	0,034
614,50	0,034
615,00	0,033
615,50	0,033
616,00	0,033
616,50	0,033
617,00	0,033
617,50	0,032
618,00	0,032
618,50	0,031
619,00	0,030
619,50	0,030
620,00	0,029
620,50	0,030
621,00	0,029
621,50	0,029
622,00	0,029
622,50	0,029
623,00	0,029
623,50	0,028
624,00	0,029
624,50	0,028
625,00	0,028
625,50	0,027
626,00	0,026
626,50	0,025
627,00	0,025
627,50	0,024
628,00	0,024
628,50	0,024
629,00	0,024
629,50	0,023
630,00	0,023
630,50	0,024
631,00	0,023
631,50	0,023
632,00	0,024
632,50	0,023
633,00	0,023
633,50	0,023
634,00	0,023
634,50	0,023
635,00	0,023
635,50	0,023
636,00	0,023
636,50	0,022
637,00	0,022
637,50	0,021
638,00	0,021
638,50	0,020
639,00	0,020
639,50	0,020
640,00	0,020
640,50	0,019
641,00	0,018
641,50	0,018
642,00	0,017
642,50	0,017
643,00	0,017
643,50	0,017
644,00	0,017
644,50	0,017
645,00	0,017
645,50	0,017
646,00	0,017
646,50	0,017
647,00	0,018
647,50	0,017
648,00	0,017
648,50	0,016
649,00	0,016
649,50	0,016
650,00	0,015
650,50	0,015
651,00	0,015
651,50	0,016
652,00	0,016
652,50	0,016
653,00	0,016
653,50	0,016
654,00	0,016
654,50	0,017
655,00	0,016
655,50	0,016
656,00	0,016
656,50	0,016
657,00	0,016
657,50	0,016
658,00	0,015
658,50	0,015
659,00	0,016
659,50	0,016
660,00	0,016
660,50	0,016
661,00	0,017
661,50	0,016
662,00	0,016
662,50	0,016
663,00	0,015
663,50	0,014
664,00	0,012
664,50	0,012
665,00	0,011
665,50	0,010
666,00	0,009
666,50	0,010
667,00	0,011
667,50	0,010
668,00	0,011
668,50	0,012
669,00	0,013
669,50	0,012
670,00	0,013
670,50	0,013
671,00	0,012
671,50	0,012
672,00	0,012
672,50	0,012
673,00	0,012
673,50	0,013
674,00	0,012
674,50	0,013
675,00	0,013
675,50	0,012
676,00	0,012
676,50	0,012
677,00	0,011
677,50	0,011
678,00	0,011
678,50	0,012
679,00	0,011
679,50	0,011
680,00	0,011
680,50	0,011
681,00	0,011
681,50	0,011
682,00	0,010
682,50	0,010
683,00	0,010
683,50	0,009
684,00	0,009
684,50	0,009
685,00	0,010
685,50	0,009
686,00	0,009
686,50	0,009
687,00	0,008
687,50	0,008
688,00	0,007
688,50	0,007
689,00	0,007
689,50	0,007
690,00	0,007
690,50	0,006
691,00	0,006
691,50	0,006
692,00	0,006
692,50	0,006
693,00	0,007
693,50	0,006
694,00	0,006
694,50	0,007
695,00	0,008
695,50	0,008
696,00	0,007
696,50	0,008
697,00	0,008
697,50	0,009
698,00	0,008
698,50	0,008
699,00	0,008
699,50	0,007
700,00	0,006
700,50	0,006
701,00	0,007
701,50	0,006
702,00	0,007
702,50	0,006
703,00	0,006
703,50	0,007
704,00	0,007
704,50	0,007
705,00	0,008
705,50	0,009
706,00	0,008
706,50	0,009
707,00	0,008
707,50	0,008
708,00	0,008
708,50	0,009
709,00	0,008
709,50	0,007
710,00	0,007
710,50	0,007
711,00	0,006
711,50	0,006
712,00	0,006
712,50	0,006
713,00	0,007
713,50	0,007
714,00	0,007
714,50	0,007
715,00	0,007
715,50	0,007
716,00	0,008
716,50	0,007
717,00	0,007
717,50	0,006
718,00	0,006
718,50	0,006
719,00	0,004
719,50	0,004
720,00	0,005
720,50	0,005
721,00	0,006
721,50	0,006
722,00	0,007
722,50	0,008
723,00	0,008
723,50	0,008
724,00	0,008
724,50	0,007
725,00	0,006
725,50	0,007
726,00	0,007
726,50	0,005
727,00	0,005
727,50	0,005
728,00	0,004
728,50	0,004
729,00	0,004
729,50	0,004
730,00	0,004
730,50	0,003
731,00	0,003
731,50	0,003
732,00	0,002
732,50	0,001
733,00	0,002
733,50	0,004
734,00	0,004
734,50	0,003
735,00	0,003
735,50	0,004
736,00	0,004
736,50	0,004
737,00	0,005
737,50	0,005
738,00	0,005
738,50	0,005
739,00	0,005
739,50	0,004
740,00	0,003
740,50	0,003
741,00	0,003
741,50	0,003
742,00	0,002
742,50	0,003
743,00	0,003
743,50	0,003
744,00	0,002
744,50	0,002
745,00	0,003
745,50	0,003
746,00	0,004
746,50	0,004
747,00	0,004
747,50	0,005
748,00	0,004
748,50	0,004
749,00	0,004
749,50	0,004
750,00	0,004
750,50	0,005
751,00	0,004
751,50	0,004
752,00	0,003
752,50	0,002
753,00	0,002
753,50	0,003
754,00	0,003
754,50	0,004
755,00	0,003
755,50	0,004
756,00	0,004
756,50	0,005
757,00	0,005
757,50	0,006
758,00	0,006
758,50	0,007
759,00	0,008
759,50	0,007
760,00	0,006
760,50	0,005
761,00	0,005
761,50	0,004
762,00	0,003
762,50	0,001
763,00	-0,000
763,50	-0,001
764,00	-0,001
764,50	-0,001
765,00	-0,001
765,50	0,000
766,00	0,001
766,50	0,003
767,00	0,003
767,50	0,003
768,00	0,004
768,50	0,006
769,00	0,007
769,50	0,008
770,00	0,008
770,50	0,007
771,00	0,008
771,50	0,008
772,00	0,008
772,50	0,007
773,00	0,006
773,50	0,005
774,00	0,005
774,50	0,004
775,00	0,002
775,50	0,002
776,00	0,002
776,50	0,002
777,00	0,001
777,50	0,000
778,00	0,001
778,50	0,002
779,00	0,002
779,50	0,002
780,00	0,002
780,50	0,003
781,00	0,002
781,50	0,003
782,00	0,004
782,50	0,004
783,00	0,004
783,50	0,004
784,00	0,003
784,50	0,003
785,00	0,003
785,50	0,003
786,00	0,004
786,50	0,004
787,00	0,003
787,50	0,004
788,00	0,005
788,50	0,004
789,00	0,004
789,50	0,005
790,00	0,005
790,50	0,005
791,00	0,005
791,50	0,006
792,00	0,004
792,50	0,004
793,00	0,005
793,50	0,004
794,00	0,003
794,50	0,001
795,00	0,001
795,50	0,001
796,00	0,001
796,50	0,001
797,00	0,001
797,50	0,001
798,00	0,001
798,50	0,001
799,00	0,001
799,50	0,001
800,00	0,001