File: Lambda max, Extincion max y Area/oro/2/6.15e-4.txt
"6.15e-4 - Dataset 213858"
"Wavelength nm."	"Abs."
200,00	2,706
200,50	2,706
201,00	2,706
201,50	2,706
202,00	2,706
202,50	2,706
203,00	2,706
203,50	2,706
204,00	2,706
204,50	3,250
205,00	3,200
205,50	3,157
206,00	2,886
206,50	2,712
207,00	2,498
207,50	2,313
208,00	2,171
208,50	2,067
209,00	1,408
209,50	1,747
210,00	2,317
210,50	2,866
211,00	2,505
211,50	2,077
212,00	2,459
212,50	2,482
213,00	2,253
213,50	3,246
214,00	3,502
214,50	3,083
215,00	3,307
215,50	3,521
216,00	3,765
216,50	4,039
217,00	3,920
217,50	4,759
218,00	4,988
218,50	4,270
219,00	3,496
219,50	3,698
220,00	3,420
220,50	3,805
221,00	3,650
221,50	4,156
222,00	3,885
222,50	3,209
223,00	2,673
223,50	2,775
224,00	2,568
224,50	2,490
225,00	2,702
225,50	2,541
226,00	2,463
226,50	2,009
227,00	1,775
227,50	2,239
228,00	2,124
228,50	2,181
229,00	1,826
229,50	2,702
230,00	2,857
230,50	2,361
231,00	2,434
231,50	2,840
232,00	2,386
232,50	3,030
233,00	2,560
233,50	2,146
234,00	2,782
234,50	2,468
235,00	2,322
235,50	2,752
236,00	3,161
236,50	3,347
237,00	3,945
237,50	4,557
238,00	4,415
238,50	3,979
239,00	3,602
239,50	2,897
240,00	2,609
240,50	2,323
241,00	2,081
241,50	1,747
242,00	1,728
242,50	1,820
243,00	2,283
243,50	2,350
244,00	3,148
244,50	3,118
245,00	3,554
245,50	3,748
246,00	3,212
246,50	2,678
247,00	2,549
247,50	2,799
248,00	3,096
248,50	2,741
249,00	2,750
249,50	1,705
250,00	1,483
250,50	1,645
251,00	1,871
251,50	1,431
252,00	1,751
252,50	1,741
253,00	2,813
253,50	3,182
254,00	3,252
254,50	3,351
255,00	4,051
255,50	4,346
256,00	4,217
256,50	3,960
257,00	2,940
257,50	2,331
258,00	1,770
258,50	1,895
259,00	2,086
259,50	1,696
260,00	1,724
260,50	1,888
261,00	1,763
261,50	1,743
262,00	1,282
262,50	0,863
263,00	1,649
263,50	1,671
264,00	1,995
264,50	2,266
265,00	1,788
265,50	2,120
266,00	2,172
266,50	3,385
267,00	3,449
267,50	3,523
268,00	3,985
268,50	3,970
269,00	3,343
269,50	3,732
270,00	3,563
270,50	3,613
271,00	3,816
271,50	3,308
272,00	2,833
272,50	2,376
273,00	1,718
273,50	1,577
274,00	1,518
274,50	1,600
275,00	0,632
275,50	0,897
276,00	1,330
276,50	1,261
277,00	1,172
277,50	1,634
278,00	1,684
278,50	1,547
279,00	1,470
279,50	1,202
280,00	0,843
280,50	1,110
281,00	1,019
281,50	0,941
282,00	0,755
282,50	0,541
283,00	0,278
283,50	0,630
284,00	0,645
284,50	0,684
285,00	0,623
285,50	0,640
286,00	0,610
286,50	0,607
287,00	0,599
287,50	0,601
288,00	0,599
288,50	0,600
289,00	0,604
289,50	0,601
290,00	0,599
290,50	0,598
291,00	0,597
291,50	0,597
292,00	0,596
292,50	0,597
293,00	0,597
293,50	0,598
294,00	0,598
294,50	0,599
295,00	0,595
295,50	0,595
296,00	0,592
296,50	0,592
297,00	0,591
297,50	0,590
298,00	0,590
298,50	0,587
299,00	0,586
299,50	0,585
300,00	0,584
300,50	0,583
301,00	0,583
301,50	0,582
302,00	0,581
302,50	0,580
303,00	0,579
303,50	0,579
304,00	0,578
304,50	0,577
305,00	0,576
305,50	0,576
306,00	0,575
306,50	0,574
307,00	0,573
307,50	0,572
308,00	0,571
308,50	0,570
309,00	0,570
309,50	0,569
310,00	0,568
310,50	0,567
311,00	0,566
311,50	0,565
312,00	0,564
312,50	0,564
313,00	0,563
313,50	0,562
314,00	0,561
314,50	0,560
315,00	0,559
315,50	0,558
316,00	0,557
316,50	0,557
317,00	0,556
317,50	0,555
318,00	0,554
318,50	0,552
319,00	0,551
319,50	0,550
320,00	0,549
320,50	0,548
321,00	0,547
321,50	0,547
322,00	0,546
322,50	0,545
323,00	0,544
323,50	0,543
324,00	0,542
324,50	0,541
325,00	0,540
325,50	0,539
326,00	0,538
326,50	0,537
327,00	0,535
327,50	0,534
328,00	0,534
328,50	0,533
329,00	0,531
329,50	0,530
330,00	0,529
330,50	0,528
331,00	0,528
331,50	0,527
332,00	0,526
332,50	0,525
333,00	0,524
333,50	0,523
334,00	0,522
334,50	0,521
335,00	0,521
335,50	0,520
336,00	0,519
336,50	0,518
337,00	0,517
337,50	0,516
338,00	0,515
338,50	0,514
339,00	0,513
339,50	0,512
340,00	0,511
340,50	0,510
341,00	0,509
341,50	0,509
342,00	0,508
342,50	0,507
343,00	0,506
343,50	0,506
344,00	0,505
344,50	0,505
345,00	0,504
345,50	0,503
346,00	0,502
346,50	0,502
347,00	0,501
347,50	0,500
348,00	0,500
348,50	0,499
349,00	0,499
349,50	0,499
350,00	0,498
350,50	0,498
351,00	0,498
351,50	0,498
352,00	0,497
352,50	0,497
353,00	0,497
353,50	0,497
354,00	0,497
354,50	0,497
355,00	0,497
355,50	0,497
356,00	0,496
356,50	0,496
357,00	0,496
357,50	0,496
358,00	0,496
358,50	0,496
359,00	0,496
359,50	0,496
360,00	0,496
360,50	0,496
361,00	0,496
361,50	0,496
362,00	0,496
362,50	0,496
363,00	0,496
363,50	0,496
364,00	0,496
364,50	0,496
365,00	0,496
365,50	0,496
366,00	0,495
366,50	0,495
367,00	0,495
367,50	0,495
368,00	0,495
368,50	0,495
369,00	0,494
369,50	0,494
370,00	0,494
370,50	0,494
371,00	0,494
371,50	0,493
372,00	0,493
372,50	0,493
373,00	0,493
373,50	0,492
374,00	0,492
374,50	0,492
375,00	0,491
375,50	0,491
376,00	0,491
376,50	0,490
377,00	0,490
377,50	0,490
378,00	0,490
378,50	0,489
379,00	0,489
379,50	0,489
380,00	0,489
380,50	0,488
381,00	0,488
381,50	0,488
382,00	0,487
382,50	0,487
383,00	0,487
383,50	0,486
384,00	0,486
384,50	0,486
385,00	0,485
385,50	0,485
386,00	0,485
386,50	0,484
387,00	0,484
387,50	0,483
388,00	0,483
388,50	0,483
389,00	0,482
389,50	0,482
390,00	0,481
390,50	0,481
391,00	0,481
391,50	0,480
392,00	0,480
392,50	0,479
393,00	0,479
393,50	0,479
394,00	0,478
394,50	0,478
395,00	0,477
395,50	0,477
396,00	0,476
396,50	0,476
397,00	0,475
397,50	0,475
398,00	0,474
398,50	0,474
399,00	0,473
399,50	0,473
400,00	0,473
400,50	0,472
401,00	0,472
401,50	0,471
402,00	0,471
402,50	0,470
403,00	0,470
403,50	0,469
404,00	0,469
404,50	0,468
405,00	0,468
405,50	0,468
406,00	0,467
406,50	0,467
407,00	0,466
407,50	0,466
408,00	0,465
408,50	0,465
409,00	0,464
409,50	0,464
410,00	0,463
410,50	0,463
411,00	0,462
411,50	0,462
412,00	0,461
412,50	0,461
413,00	0,461
413,50	0,460
414,00	0,460
414,50	0,459
415,00	0,459
415,50	0,459
416,00	0,458
416,50	0,458
417,00	0,457
417,50	0,457
418,00	0,456
418,50	0,456
419,00	0,456
419,50	0,455
420,00	0,455
420,50	0,454
421,00	0,454
421,50	0,453
422,00	0,453
422,50	0,452
423,00	0,452
423,50	0,452
424,00	0,451
424,50	0,451
425,00	0,450
425,50	0,450
426,00	0,449
426,50	0,449
427,00	0,448
427,50	0,448
428,00	0,447
428,50	0,447
429,00	0,447
429,50	0,446
430,00	0,446
430,50	0,446
431,00	0,445
431,50	0,445
432,00	0,444
432,50	0,444
433,00	0,443
433,50	0,443
434,00	0,443
434,50	0,442
435,00	0,442
435,50	0,441
436,00	0,441
436,50	0,441
437,00	0,440
437,50	0,440
438,00	0,439
438,50	0,439
439,00	0,439
439,50	0,438
440,00	0,438
440,50	0,437
441,00	0,437
441,50	0,437
442,00	0,436
442,50	0,436
443,00	0,436
443,50	0,435
444,00	0,435
444,50	0,434
445,00	0,434
445,50	0,433
446,00	0,433
446,50	0,433
447,00	0,433
447,50	0,432
448,00	0,432
448,50	0,431
449,00	0,431
449,50	0,431
450,00	0,431
450,50	0,430
451,00	0,430
451,50	0,430
452,00	0,429
452,50	0,429
453,00	0,429
453,50	0,428
454,00	0,428
454,50	0,428
455,00	0,428
455,50	0,427
456,00	0,427
456,50	0,427
457,00	0,427
457,50	0,426
458,00	0,426
458,50	0,426
459,00	0,426
459,50	0,425
460,00	0,425
460,50	0,425
461,00	0,425
461,50	0,425
462,00	0,425
462,50	0,424
463,00	0,424
463,50	0,424
464,00	0,424
464,50	0,424
465,00	0,424
465,50	0,424
466,00	0,424
466,50	0,424
467,00	0,424
467,50	0,424
468,00	0,424
468,50	0,424
469,00	0,424
469,50	0,424
470,00	0,424
470,50	0,424
471,00	0,424
471,50	0,424
472,00	0,424
472,50	0,424
473,00	0,424
473,50	0,424
474,00	0,425
474,50	0,425
475,00	0,425
475,50	0,425
476,00	0,426
476,50	0,426
477,00	0,426
477,50	0,427
478,00	0,427
478,50	0,428
479,00	0,428
479,50	0,429
480,00	0,430
480,50	0,430
481,00	0,431
481,50	0,432
482,00	0,432
482,50	0,433
483,00	0,434
483,50	0,435
484,00	0,436
484,50	0,437
485,00	0,438
485,50	0,440
486,00	0,441
486,50	0,442
487,00	0,444
487,50	0,445
488,00	0,447
488,50	0,448
489,00	0,450
489,50	0,452
490,00	0,453
490,50	0,455
491,00	0,458
491,50	0,460
492,00	0,462
492,50	0,464
493,00	0,466
493,50	0,469
494,00	0,471
494,50	0,474
495,00	0,477
495,50	0,479
496,00	0,482
496,50	0,485
497,00	0,488
497,50	0,491
498,00	0,494
498,50	0,497
499,00	0,500
499,50	0,503
500,00	0,507
500,50	0,510
501,00	0,514
501,50	0,517
502,00	0,521
502,50	0,524
503,00	0,528
503,50	0,531
504,00	0,535
504,50	0,539
505,00	0,543
505,50	0,547
506,00	0,550
506,50	0,554
507,00	0,558
507,50	0,562
508,00	0,566
508,50	0,570
509,00	0,574
509,50	0,578
510,00	0,582
510,50	0,587
511,00	0,591
511,50	0,595
512,00	0,599
512,50	0,603
513,00	0,607
513,50	0,612
514,00	0,616
514,50	0,620
515,00	0,624
515,50	0,628
516,00	0,632
516,50	0,636
517,00	0,640
517,50	0,644
518,00	0,648
518,50	0,652
519,00	0,656
519,50	0,660
520,00	0,664
520,50	0,668
521,00	0,671
521,50	0,675
522,00	0,679
522,50	0,682
523,00	0,685
523,50	0,689
524,00	0,692
524,50	0,695
525,00	0,698
525,50	0,702
526,00	0,705
526,50	0,708
527,00	0,711
527,50	0,714
528,00	0,717
528,50	0,719
529,00	0,722
529,50	0,725
530,00	0,728
530,50	0,730
531,00	0,733
531,50	0,735
532,00	0,737
532,50	0,740
533,00	0,742
533,50	0,744
534,00	0,746
534,50	0,749
535,00	0,751
535,50	0,753
536,00	0,754
536,50	0,756
537,00	0,758
537,50	0,760
538,00	0,761
538,50	0,763
539,00	0,765
539,50	0,766
540,00	0,767
540,50	0,769
541,00	0,770
541,50	0,772
542,00	0,773
542,50	0,774
543,00	0,775
543,50	0,776
544,00	0,777
544,50	0,778
545,00	0,779
545,50	0,780
546,00	0,780
546,50	0,781
547,00	0,782
547,50	0,782
548,00	0,783
548,50	0,784
549,00	0,784
549,50	0,785
550,00	0,785
550,50	0,785
551,00	0,786
551,50	0,786
552,00	0,786
552,50	0,786
553,00	0,786
553,50	0,786
554,00	0,787
554,50	0,787
555,00	0,787
555,50	0,786
556,00	0,786
556,50	0,786
557,00	0,786
557,50	0,786
558,00	0,786
558,50	0,785
559,00	0,785
559,50	0,785
560,00	0,784
560,50	0,784
561,00	0,783
561,50	0,783
562,00	0,782
562,50	0,782
563,00	0,781
563,50	0,780
564,00	0,780
564,50	0,779
565,00	0,778
565,50	0,777
566,00	0,777
566,50	0,776
567,00	0,775
567,50	0,774
568,00	0,773
568,50	0,772
569,00	0,771
569,50	0,770
570,00	0,769
570,50	0,768
571,00	0,767
571,50	0,765
572,00	0,764
572,50	0,763
573,00	0,762
573,50	0,761
574,00	0,759
574,50	0,758
575,00	0,757
575,50	0,755
576,00	0,754
576,50	0,753
577,00	0,751
577,50	0,750
578,00	0,748
578,50	0,747
579,00	0,745
579,50	0,744
580,00	0,742
580,50	0,741
581,00	0,739
581,50	0,737
582,00	0,736
582,50	0,734
583,00	0,733
583,50	0,731
584,00	0,729
584,50	0,728
585,00	0,726
585,50	0,724
586,00	0,723
586,50	0,721
587,00	0,719
587,50	0,717
588,00	0,715
588,50	0,713
589,00	0,711
589,50	0,709
590,00	0,707
590,50	0,706
591,00	0,704
591,50	0,702
592,00	0,700
592,50	0,698
593,00	0,696
593,50	0,694
594,00	0,692
594,50	0,690
595,00	0,688
595,50	0,686
596,00	0,685
596,50	0,683
597,00	0,681
597,50	0,679
598,00	0,677
598,50	0,675
599,00	0,673
599,50	0,671
600,00	0,669
600,50	0,667
601,00	0,665
601,50	0,663
602,00	0,661
602,50	0,659
603,00	0,657
603,50	0,655
604,00	0,653
604,50	0,651
605,00	0,649
605,50	0,647
606,00	0,645
606,50	0,643
607,00	0,641
607,50	0,639
608,00	0,637
608,50	0,635
609,00	0,633
609,50	0,631
610,00	0,629
610,50	0,627
611,00	0,625
611,50	0,623
612,00	0,621
612,50	0,619
613,00	0,617
613,50	0,615
614,00	0,613
614,50	0,611
615,00	0,609
615,50	0,606
616,00	0,604
616,50	0,602
617,00	0,600
617,50	0,598
618,00	0,596
618,50	0,594
619,00	0,592
619,50	0,590
620,00	0,588
620,50	0,586
621,00	0,584
621,50	0,582
622,00	0,580
622,50	0,578
623,00	0,576
623,50	0,574
624,00	0,572
624,50	0,570
625,00	0,568
625,50	0,566
626,00	0,564
626,50	0,562
627,00	0,560
627,50	0,559
628,00	0,557
628,50	0,555
629,00	0,553
629,50	0,551
630,00	0,549
630,50	0,547
631,00	0,545
631,50	0,543
632,00	0,541
632,50	0,539
633,00	0,537
633,50	0,535
634,00	0,533
634,50	0,531
635,00	0,529
635,50	0,527
636,00	0,524
636,50	0,522
637,00	0,520
637,50	0,519
638,00	0,517
638,50	0,515
639,00	0,513
639,50	0,511
640,00	0,509
640,50	0,507
641,00	0,505
641,50	0,503
642,00	0,501
642,50	0,499
643,00	0,497
643,50	0,495
644,00	0,493
644,50	0,491
645,00	0,489
645,50	0,487
646,00	0,485
646,50	0,484
647,00	0,482
647,50	0,480
648,00	0,478
648,50	0,476
649,00	0,474
649,50	0,472
650,00	0,470
650,50	0,468
651,00	0,467
651,50	0,465
652,00	0,463
652,50	0,461
653,00	0,459
653,50	0,457
654,00	0,455
654,50	0,453
655,00	0,451
655,50	0,450
656,00	0,448
656,50	0,446
657,00	0,444
657,50	0,442
658,00	0,440
658,50	0,438
659,00	0,437
659,50	0,435
660,00	0,433
660,50	0,431
661,00	0,429
661,50	0,428
662,00	0,426
662,50	0,424
663,00	0,422
663,50	0,420
664,00	0,419
664,50	0,417
665,00	0,415
665,50	0,413
666,00	0,412
666,50	0,410
667,00	0,408
667,50	0,406
668,00	0,404
668,50	0,403
669,00	0,401
669,50	0,399
670,00	0,397
670,50	0,396
671,00	0,394
671,50	0,392
672,00	0,391
672,50	0,389
673,00	0,387
673,50	0,386
674,00	0,384
674,50	0,382
675,00	0,381
675,50	0,379
676,00	0,377
676,50	0,375
677,00	0,374
677,50	0,372
678,00	0,370
678,50	0,368
679,00	0,367
679,50	0,365
680,00	0,364
680,50	0,362
681,00	0,360
681,50	0,359
682,00	0,357
682,50	0,355
683,00	0,354
683,50	0,352
684,00	0,350
684,50	0,348
685,00	0,347
685,50	0,345
686,00	0,343
686,50	0,342
687,00	0,340
687,50	0,339
688,00	0,337
688,50	0,335
689,00	0,334
689,50	0,332
690,00	0,331
690,50	0,329
691,00	0,327
691,50	0,326
692,00	0,324
692,50	0,323
693,00	0,321
693,50	0,320
694,00	0,318
694,50	0,317
695,00	0,315
695,50	0,314
696,00	0,312
696,50	0,311
697,00	0,309
697,50	0,308
698,00	0,307
698,50	0,305
699,00	0,304
699,50	0,302
700,00	0,301
700,50	0,299
701,00	0,298
701,50	0,296
702,00	0,295
702,50	0,293
703,00	0,292
703,50	0,291
704,00	0,289
704,50	0,288
705,00	0,286
705,50	0,285
706,00	0,283
706,50	0,282
707,00	0,281
707,50	0,279
708,00	0,278
708,50	0,276
709,00	0,275
709,50	0,274
710,00	0,272
710,50	0,271
711,00	0,269
711,50	0,268
712,00	0,267
712,50	0,265
713,00	0,264
713,50	0,263
714,00	0,261
714,50	0,260
715,00	0,259
715,50	0,257
716,00	0,256
716,50	0,255
717,00	0,253
717,50	0,252
718,00	0,251
718,50	0,250
719,00	0,248
719,50	0,247
720,00	0,246
720,50	0,245
721,00	0,244
721,50	0,242
722,00	0,241
722,50	0,240
723,00	0,238
723,50	0,237
724,00	0,236
724,50	0,235
725,00	0,233
725,50	0,232
726,00	0,231
726,50	0,230
727,00	0,229
727,50	0,228
728,00	0,226
728,50	0,225
729,00	0,224
729,50	0,223
730,00	0,221
730,50	0,220
731,00	0,219
731,50	0,218
732,00	0,217
732,50	0,216
733,00	0,215
733,50	0,214
734,00	0,212
734,50	0,211
735,00	0,210
735,50	0,209
736,00	0,208
736,50	0,207
737,00	0,206
737,50	0,205
738,00	0,204
738,50	0,203
739,00	0,202
739,50	0,201
740,00	0,200
740,50	0,199
741,00	0,198
741,50	0,196
742,00	0,195
742,50	0,194
743,00	0,193
743,50	0,192
744,00	0,191
744,50	0,190
745,00	0,189
745,50	0,188
746,00	0,187
746,50	0,186
747,00	0,185
747,50	0,184
748,00	0,183
748,50	0,182
749,00	0,181
749,50	0,180
750,00	0,179
750,50	0,178
751,00	0,178
751,50	0,177
752,00	0,176
752,50	0,175
753,00	0,174
753,50	0,173
754,00	0,172
754,50	0,171
755,00	0,170
755,50	0,169
756,00	0,168
756,50	0,167
757,00	0,166
757,50	0,165
758,00	0,164
758,50	0,164
759,00	0,163
759,50	0,162
760,00	0,161
760,50	0,160
761,00	0,160
761,50	0,159
762,00	0,158
762,50	0,157
763,00	0,156
763,50	0,155
764,00	0,154
764,50	0,154
765,00	0,153
765,50	0,152
766,00	0,151
766,50	0,150
767,00	0,150
767,50	0,149
768,00	0,148
768,50	0,147
769,00	0,147
769,50	0,146
770,00	0,145
770,50	0,144
771,00	0,144
771,50	0,143
772,00	0,142
772,50	0,141
773,00	0,140
773,50	0,140
774,00	0,139
774,50	0,138
775,00	0,137
775,50	0,136
776,00	0,136
776,50	0,135
777,00	0,134
777,50	0,134
778,00	0,133
778,50	0,132
779,00	0,131
779,50	0,131
780,00	0,130
780,50	0,129
781,00	0,129
781,50	0,128
782,00	0,127
782,50	0,127
783,00	0,126
783,50	0,125
784,00	0,125
784,50	0,124
785,00	0,124
785,50	0,123
786,00	0,122
786,50	0,122
787,00	0,121
787,50	0,121
788,00	0,120
788,50	0,119
789,00	0,119
789,50	0,118
790,00	0,117
790,50	0,117
791,00	0,116
791,50	0,116
792,00	0,115
792,50	0,115
793,00	0,114
793,50	0,113
794,00	0,113
794,50	0,112
795,00	0,112
795,50	0,111
796,00	0,110
796,50	0,110
797,00	0,110
797,50	0,110
798,00	0,110
798,50	0,110
799,00	0,110
799,50	0,110
800,00	0,110