File: Espectro Uv-Vis/oro/6/3.26e-4.txt
"3.86e-4 - Dataset 225149"
"Wavelength nm."	"Abs."
200,00	0,598
200,50	0,598
201,00	0,598
201,50	0,598
202,00	0,598
202,50	0,598
203,00	0,598
203,50	0,598
204,00	0,598
204,50	0,597
205,00	0,596
205,50	0,596
206,00	0,595
206,50	0,594
207,00	0,593
207,50	0,593
208,00	0,592
208,50	0,591
209,00	0,591
209,50	0,590
210,00	0,589
210,50	0,589
211,00	0,588
211,50	0,587
212,00	0,587
212,50	0,586
213,00	0,585
213,50	0,585
214,00	0,584
214,50	0,584
215,00	0,583
215,50	0,583
216,00	0,582
216,50	0,581
217,00	0,581
217,50	0,580
218,00	0,580
218,50	0,579
219,00	0,578
219,50	0,578
220,00	0,577
220,50	0,577
221,00	0,576
221,50	0,576
222,00	0,575
222,50	0,575
223,00	0,574
223,50	0,574
224,00	0,573
224,50	0,573
225,00	0,572
225,50	0,572
226,00	0,571
226,50	0,571
227,00	0,570
227,50	0,570
228,00	0,570
228,50	0,569
229,00	0,569
229,50	0,569
230,00	0,568
230,50	0,568
231,00	0,568
231,50	0,568
232,00	0,568
232,50	0,568
233,00	0,567
233,50	0,567
234,00	0,567
234,50	0,567
235,00	0,567
235,50	0,567
236,00	0,568
236,50	0,568
237,00	0,568
237,50	0,568
238,00	0,568
238,50	0,568
239,00	0,569
239,50	0,569
240,00	0,569
240,50	0,570
241,00	0,570
241,50	0,570
242,00	0,571
242,50	0,571
243,00	0,572
243,50	0,572
244,00	0,573
244,50	0,573
245,00	0,574
245,50	0,575
246,00	0,575
246,50	0,576
247,00	0,576
247,50	0,577
248,00	0,578
248,50	0,578
249,00	0,579
249,50	0,580
250,00	0,580
250,50	0,581
251,00	0,582
251,50	0,582
252,00	0,583
252,50	0,584
253,00	0,584
253,50	0,585
254,00	0,585
254,50	0,586
255,00	0,586
255,50	0,587
256,00	0,587
256,50	0,588
257,00	0,588
257,50	0,588
258,00	0,589
258,50	0,589
259,00	0,590
259,50	0,590
260,00	0,590
260,50	0,591
261,00	0,591
261,50	0,591
262,00	0,591
262,50	0,591
263,00	0,591
263,50	0,591
264,00	0,591
264,50	0,591
265,00	0,591
265,50	0,591
266,00	0,591
266,50	0,591
267,00	0,590
267,50	0,590
268,00	0,590
268,50	0,589
269,00	0,589
269,50	0,589
270,00	0,588
270,50	0,587
271,00	0,587
271,50	0,586
272,00	0,585
272,50	0,584
273,00	0,583
273,50	0,583
274,00	0,582
274,50	0,581
275,00	0,580
275,50	0,579
276,00	0,578
276,50	0,577
277,00	0,576
277,50	0,575
278,00	0,573
278,50	0,572
279,00	0,571
279,50	0,570
280,00	0,569
280,50	0,568
281,00	0,567
281,50	0,566
282,00	0,564
282,50	0,563
283,00	0,562
283,50	0,560
284,00	0,559
284,50	0,558
285,00	0,557
285,50	0,556
286,00	0,554
286,50	0,556
287,00	0,554
287,50	0,551
288,00	0,549
288,50	0,547
289,00	0,543
289,50	0,539
290,00	0,532
290,50	0,527
291,00	0,526
291,50	0,524
292,00	0,524
292,50	0,524
293,00	0,526
293,50	0,528
294,00	0,533
294,50	0,534
295,00	0,530
295,50	0,533
296,00	0,531
296,50	0,530
297,00	0,526
297,50	0,522
298,00	0,516
298,50	0,514
299,00	0,515
299,50	0,512
300,00	0,513
300,50	0,515
301,00	0,519
301,50	0,519
302,00	0,517
302,50	0,511
303,00	0,512
303,50	0,514
304,00	0,510
304,50	0,510
305,00	0,509
305,50	0,503
306,00	0,503
306,50	0,504
307,00	0,505
307,50	0,501
308,00	0,502
308,50	0,505
309,00	0,506
309,50	0,503
310,00	0,501
310,50	0,502
311,00	0,502
311,50	0,499
312,00	0,494
312,50	0,492
313,00	0,489
313,50	0,485
314,00	0,485
314,50	0,482
315,00	0,481
315,50	0,477
316,00	0,476
316,50	0,476
317,00	0,477
317,50	0,477
318,00	0,478
318,50	0,480
319,00	0,479
319,50	0,477
320,00	0,476
320,50	0,475
321,00	0,473
321,50	0,471
322,00	0,468
322,50	0,466
323,00	0,466
323,50	0,461
324,00	0,457
324,50	0,454
325,00	0,454
325,50	0,451
326,00	0,452
326,50	0,453
327,00	0,451
327,50	0,449
328,00	0,451
328,50	0,449
329,00	0,450
329,50	0,450
330,00	0,449
330,50	0,448
331,00	0,446
331,50	0,445
332,00	0,443
332,50	0,442
333,00	0,442
333,50	0,440
334,00	0,444
334,50	0,445
335,00	0,444
335,50	0,446
336,00	0,446
336,50	0,443
337,00	0,444
337,50	0,442
338,00	0,440
338,50	0,437
339,00	0,435
339,50	0,432
340,00	0,430
340,50	0,429
341,00	0,427
341,50	0,425
342,00	0,426
342,50	0,427
343,00	0,425
343,50	0,425
344,00	0,423
344,50	0,420
345,00	0,420
345,50	0,420
346,00	0,422
346,50	0,419
347,00	0,419
347,50	0,419
348,00	0,420
348,50	0,420
349,00	0,420
349,50	0,420
350,00	0,421
350,50	0,421
351,00	0,420
351,50	0,420
352,00	0,419
352,50	0,419
353,00	0,417
353,50	0,419
354,00	0,419
354,50	0,417
355,00	0,417
355,50	0,416
356,00	0,415
356,50	0,415
357,00	0,416
357,50	0,416
358,00	0,417
358,50	0,416
359,00	0,416
359,50	0,415
360,00	0,415
360,50	0,415
361,00	0,414
361,50	0,415
362,00	0,415
362,50	0,416
363,00	0,417
363,50	0,417
364,00	0,418
364,50	0,419
365,00	0,420
365,50	0,420
366,00	0,420
366,50	0,420
367,00	0,420
367,50	0,419
368,00	0,420
368,50	0,419
369,00	0,419
369,50	0,417
370,00	0,417
370,50	0,416
371,00	0,415
371,50	0,414
372,00	0,413
372,50	0,412
373,00	0,410
373,50	0,409
374,00	0,409
374,50	0,410
375,00	0,410
375,50	0,409
376,00	0,409
376,50	0,408
377,00	0,407
377,50	0,408
378,00	0,408
378,50	0,407
379,00	0,408
379,50	0,408
380,00	0,408
380,50	0,409
381,00	0,409
381,50	0,409
382,00	0,409
382,50	0,407
383,00	0,406
383,50	0,405
384,00	0,403
384,50	0,402
385,00	0,400
385,50	0,401
386,00	0,399
386,50	0,400
387,00	0,399
387,50	0,398
388,00	0,398
388,50	0,397
389,00	0,396
389,50	0,396
390,00	0,395
390,50	0,395
391,00	0,395
391,50	0,395
392,00	0,396
392,50	0,398
393,00	0,397
393,50	0,397
394,00	0,397
394,50	0,398
395,00	0,398
395,50	0,396
396,00	0,396
396,50	0,395
397,00	0,395
397,50	0,394
398,00	0,392
398,50	0,391
399,00	0,390
399,50	0,390
400,00	0,391
400,50	0,389
401,00	0,388
401,50	0,387
402,00	0,387
402,50	0,387
403,00	0,388
403,50	0,388
404,00	0,388
404,50	0,389
405,00	0,388
405,50	0,388
406,00	0,387
406,50	0,385
407,00	0,385
407,50	0,384
408,00	0,382
408,50	0,381
409,00	0,379
409,50	0,378
410,00	0,378
410,50	0,377
411,00	0,377
411,50	0,377
412,00	0,377
412,50	0,377
413,00	0,377
413,50	0,378
414,00	0,378
414,50	0,378
415,00	0,378
415,50	0,377
416,00	0,376
416,50	0,375
417,00	0,375
417,50	0,375
418,00	0,374
418,50	0,374
419,00	0,373
419,50	0,371
420,00	0,371
420,50	0,370
421,00	0,370
421,50	0,369
422,00	0,369
422,50	0,368
423,00	0,367
423,50	0,367
424,00	0,367
424,50	0,366
425,00	0,367
425,50	0,367
426,00	0,368
426,50	0,368
427,00	0,367
427,50	0,366
428,00	0,367
428,50	0,367
429,00	0,367
429,50	0,365
430,00	0,365
430,50	0,365
431,00	0,365
431,50	0,364
432,00	0,363
432,50	0,362
433,00	0,362
433,50	0,361
434,00	0,362
434,50	0,361
435,00	0,361
435,50	0,361
436,00	0,362
436,50	0,361
437,00	0,361
437,50	0,361
438,00	0,362
438,50	0,362
439,00	0,361
439,50	0,360
440,00	0,358
440,50	0,358
441,00	0,358
441,50	0,359
442,00	0,359
442,50	0,359
443,00	0,359
443,50	0,359
444,00	0,359
444,50	0,358
445,00	0,358
445,50	0,358
446,00	0,359
446,50	0,357
447,00	0,357
447,50	0,357
448,00	0,356
448,50	0,356
449,00	0,356
449,50	0,356
450,00	0,356
450,50	0,356
451,00	0,355
451,50	0,355
452,00	0,355
452,50	0,355
453,00	0,355
453,50	0,356
454,00	0,357
454,50	0,357
455,00	0,357
455,50	0,357
456,00	0,356
456,50	0,356
457,00	0,356
457,50	0,355
458,00	0,356
458,50	0,355
459,00	0,355
459,50	0,355
460,00	0,355
460,50	0,355
461,00	0,355
461,50	0,355
462,00	0,356
462,50	0,355
463,00	0,354
463,50	0,354
464,00	0,354
464,50	0,353
465,00	0,355
465,50	0,356
466,00	0,356
466,50	0,357
467,00	0,358
467,50	0,358
468,00	0,358
468,50	0,359
469,00	0,359
469,50	0,360
470,00	0,361
470,50	0,361
471,00	0,361
471,50	0,362
472,00	0,362
472,50	0,363
473,00	0,364
473,50	0,364
474,00	0,364
474,50	0,364
475,00	0,365
475,50	0,365
476,00	0,366
476,50	0,366
477,00	0,367
477,50	0,368
478,00	0,368
478,50	0,369
479,00	0,370
479,50	0,371
480,00	0,372
480,50	0,373
481,00	0,373
481,50	0,375
482,00	0,376
482,50	0,378
483,00	0,380
483,50	0,381
484,00	0,383
484,50	0,384
485,00	0,386
485,50	0,388
486,00	0,390
486,50	0,392
487,00	0,394
487,50	0,395
488,00	0,397
488,50	0,398
489,00	0,400
489,50	0,403
490,00	0,406
490,50	0,408
491,00	0,411
491,50	0,414
492,00	0,418
492,50	0,421
493,00	0,424
493,50	0,428
494,00	0,431
494,50	0,433
495,00	0,436
495,50	0,439
496,00	0,442
496,50	0,444
497,00	0,448
497,50	0,451
498,00	0,454
498,50	0,458
499,00	0,461
499,50	0,466
500,00	0,471
500,50	0,474
501,00	0,479
501,50	0,483
502,00	0,488
502,50	0,492
503,00	0,496
503,50	0,500
504,00	0,504
504,50	0,508
505,00	0,512
505,50	0,516
506,00	0,520
506,50	0,523
507,00	0,528
507,50	0,533
508,00	0,537
508,50	0,541
509,00	0,546
509,50	0,551
510,00	0,555
510,50	0,560
511,00	0,565
511,50	0,569
512,00	0,574
512,50	0,580
513,00	0,585
513,50	0,589
514,00	0,593
514,50	0,597
515,00	0,601
515,50	0,605
516,00	0,608
516,50	0,612
517,00	0,617
517,50	0,621
518,00	0,624
518,50	0,628
519,00	0,633
519,50	0,636
520,00	0,640
520,50	0,644
521,00	0,646
521,50	0,650
522,00	0,652
522,50	0,655
523,00	0,658
523,50	0,661
524,00	0,663
524,50	0,665
525,00	0,667
525,50	0,670
526,00	0,671
526,50	0,673
527,00	0,675
527,50	0,676
528,00	0,678
528,50	0,679
529,00	0,681
529,50	0,683
530,00	0,685
530,50	0,686
531,00	0,687
531,50	0,687
532,00	0,687
532,50	0,687
533,00	0,687
533,50	0,688
534,00	0,687
534,50	0,687
535,00	0,688
535,50	0,689
536,00	0,690
536,50	0,691
537,00	0,692
537,50	0,693
538,00	0,694
538,50	0,693
539,00	0,693
539,50	0,694
540,00	0,694
540,50	0,694
541,00	0,693
541,50	0,692
542,00	0,691
542,50	0,691
543,00	0,690
543,50	0,689
544,00	0,688
544,50	0,687
545,00	0,685
545,50	0,684
546,00	0,682
546,50	0,679
547,00	0,678
547,50	0,678
548,00	0,676
548,50	0,674
549,00	0,672
549,50	0,670
550,00	0,667
550,50	0,665
551,00	0,663
551,50	0,660
552,00	0,658
552,50	0,656
553,00	0,653
553,50	0,651
554,00	0,649
554,50	0,647
555,00	0,645
555,50	0,642
556,00	0,640
556,50	0,638
557,00	0,636
557,50	0,634
558,00	0,631
558,50	0,628
559,00	0,626
559,50	0,622
560,00	0,619
560,50	0,615
561,00	0,612
561,50	0,608
562,00	0,605
562,50	0,602
563,00	0,597
563,50	0,593
564,00	0,589
564,50	0,586
565,00	0,582
565,50	0,578
566,00	0,575
566,50	0,571
567,00	0,568
567,50	0,564
568,00	0,560
568,50	0,557
569,00	0,554
569,50	0,550
570,00	0,547
570,50	0,543
571,00	0,539
571,50	0,534
572,00	0,529
572,50	0,524
573,00	0,520
573,50	0,516
574,00	0,512
574,50	0,508
575,00	0,504
575,50	0,501
576,00	0,497
576,50	0,493
577,00	0,489
577,50	0,485
578,00	0,482
578,50	0,477
579,00	0,473
579,50	0,469
580,00	0,464
580,50	0,460
581,00	0,457
581,50	0,452
582,00	0,448
582,50	0,444
583,00	0,440
583,50	0,436
584,00	0,432
584,50	0,427
585,00	0,423
585,50	0,419
586,00	0,415
586,50	0,411
587,00	0,407
587,50	0,403
588,00	0,399
588,50	0,395
589,00	0,391
589,50	0,386
590,00	0,383
590,50	0,379
591,00	0,375
591,50	0,371
592,00	0,367
592,50	0,364
593,00	0,360
593,50	0,357
594,00	0,353
594,50	0,349
595,00	0,346
595,50	0,342
596,00	0,338
596,50	0,334
597,00	0,331
597,50	0,326
598,00	0,323
598,50	0,320
599,00	0,316
599,50	0,313
600,00	0,310
600,50	0,306
601,00	0,303
601,50	0,300
602,00	0,296
602,50	0,293
603,00	0,290
603,50	0,286
604,00	0,283
604,50	0,280
605,00	0,277
605,50	0,274
606,00	0,272
606,50	0,269
607,00	0,266
607,50	0,264
608,00	0,261
608,50	0,258
609,00	0,255
609,50	0,253
610,00	0,250
610,50	0,247
611,00	0,244
611,50	0,241
612,00	0,238
612,50	0,236
613,00	0,234
613,50	0,231
614,00	0,229
614,50	0,226
615,00	0,224
615,50	0,221
616,00	0,218
616,50	0,215
617,00	0,213
617,50	0,210
618,00	0,207
618,50	0,204
619,00	0,202
619,50	0,199
620,00	0,197
620,50	0,195
621,00	0,193
621,50	0,191
622,00	0,190
622,50	0,189
623,00	0,187
623,50	0,184
624,00	0,182
624,50	0,181
625,00	0,178
625,50	0,176
626,00	0,174
626,50	0,172
627,00	0,170
627,50	0,168
628,00	0,166
628,50	0,165
629,00	0,163
629,50	0,162
630,00	0,160
630,50	0,159
631,00	0,157
631,50	0,156
632,00	0,155
632,50	0,154
633,00	0,151
633,50	0,150
634,00	0,148
634,50	0,146
635,00	0,144
635,50	0,142
636,00	0,142
636,50	0,139
637,00	0,137
637,50	0,136
638,00	0,134
638,50	0,132
639,00	0,131
639,50	0,130
640,00	0,129
640,50	0,128
641,00	0,126
641,50	0,125
642,00	0,124
642,50	0,123
643,00	0,122
643,50	0,121
644,00	0,120
644,50	0,118
645,00	0,116
645,50	0,115
646,00	0,114
646,50	0,112
647,00	0,111
647,50	0,110
648,00	0,109
648,50	0,107
649,00	0,106
649,50	0,105
650,00	0,103
650,50	0,102
651,00	0,101
651,50	0,099
652,00	0,098
652,50	0,097
653,00	0,097
653,50	0,096
654,00	0,096
654,50	0,095
655,00	0,094
655,50	0,094
656,00	0,094
656,50	0,092
657,00	0,091
657,50	0,090
658,00	0,089
658,50	0,088
659,00	0,088
659,50	0,087
660,00	0,087
660,50	0,087
661,00	0,086
661,50	0,086
662,00	0,085
662,50	0,084
663,00	0,083
663,50	0,083
664,00	0,082
664,50	0,080
665,00	0,079
665,50	0,078
666,00	0,077
666,50	0,076
667,00	0,075
667,50	0,074
668,00	0,073
668,50	0,072
669,00	0,071
669,50	0,071
670,00	0,071
670,50	0,070
671,00	0,069
671,50	0,069
672,00	0,068
672,50	0,068
673,00	0,067
673,50	0,067
674,00	0,067
674,50	0,066
675,00	0,066
675,50	0,066
676,00	0,065
676,50	0,064
677,00	0,063
677,50	0,063
678,00	0,064
678,50	0,064
679,00	0,063
679,50	0,062
680,00	0,061
680,50	0,061
681,00	0,060
681,50	0,059
682,00	0,059
682,50	0,058
683,00	0,058
683,50	0,057
684,00	0,055
684,50	0,055
685,00	0,055
685,50	0,056
686,00	0,056
686,50	0,056
687,00	0,056
687,50	0,055
688,00	0,055
688,50	0,055
689,00	0,054
689,50	0,053
690,00	0,052
690,50	0,051
691,00	0,051
691,50	0,050
692,00	0,049
692,50	0,048
693,00	0,048
693,50	0,047
694,00	0,046
694,50	0,046
695,00	0,045
695,50	0,044
696,00	0,044
696,50	0,043
697,00	0,042
697,50	0,042
698,00	0,042
698,50	0,042
699,00	0,042
699,50	0,042
700,00	0,041
700,50	0,042
701,00	0,041
701,50	0,041
702,00	0,043
702,50	0,043
703,00	0,041
703,50	0,041
704,00	0,041
704,50	0,040
705,00	0,041
705,50	0,041
706,00	0,041
706,50	0,040
707,00	0,040
707,50	0,039
708,00	0,038
708,50	0,038
709,00	0,037
709,50	0,037
710,00	0,037
710,50	0,037
711,00	0,036
711,50	0,037
712,00	0,038
712,50	0,038
713,00	0,038
713,50	0,038
714,00	0,038
714,50	0,039
715,00	0,038
715,50	0,038
716,00	0,038
716,50	0,037
717,00	0,035
717,50	0,034
718,00	0,034
718,50	0,034
719,00	0,033
719,50	0,033
720,00	0,033
720,50	0,032
721,00	0,032
721,50	0,031
722,00	0,031
722,50	0,031
723,00	0,029
723,50	0,028
724,00	0,028
724,50	0,027
725,00	0,026
725,50	0,026
726,00	0,027
726,50	0,028
727,00	0,029
727,50	0,029
728,00	0,030
728,50	0,030
729,00	0,031
729,50	0,031
730,00	0,032
730,50	0,032
731,00	0,032
731,50	0,032
732,00	0,032
732,50	0,031
733,00	0,031
733,50	0,032
734,00	0,032
734,50	0,031
735,00	0,031
735,50	0,030
736,00	0,028
736,50	0,027
737,00	0,026
737,50	0,025
738,00	0,024
738,50	0,023
739,00	0,022
739,50	0,022
740,00	0,022
740,50	0,022
741,00	0,022
741,50	0,024
742,00	0,023
742,50	0,025
743,00	0,025
743,50	0,024
744,00	0,023
744,50	0,022
745,00	0,022
745,50	0,022
746,00	0,023
746,50	0,022
747,00	0,022
747,50	0,023
748,00	0,023
748,50	0,022
749,00	0,023
749,50	0,024
750,00	0,024
750,50	0,024
751,00	0,023
751,50	0,021
752,00	0,019
752,50	0,019
753,00	0,020
753,50	0,021
754,00	0,023
754,50	0,022
755,00	0,022
755,50	0,022
756,00	0,022
756,50	0,022
757,00	0,024
757,50	0,024
758,00	0,024
758,50	0,023
759,00	0,022
759,50	0,021
760,00	0,021
760,50	0,021
761,00	0,021
761,50	0,022
762,00	0,022
762,50	0,021
763,00	0,021
763,50	0,020
764,00	0,020
764,50	0,020
765,00	0,020
765,50	0,020
766,00	0,020
766,50	0,019
767,00	0,018
767,50	0,018
768,00	0,018
768,50	0,017
769,00	0,017
769,50	0,018
770,00	0,020
770,50	0,021
771,00	0,020
771,50	0,021
772,00	0,021
772,50	0,019
773,00	0,019
773,50	0,019
774,00	0,018
774,50	0,017
775,00	0,016
775,50	0,015
776,00	0,014
776,50	0,013
777,00	0,013
777,50	0,014
778,00	0,015
778,50	0,015
779,00	0,016
779,50	0,016
780,00	0,016
780,50	0,016
781,00	0,016
781,50	0,016
782,00	0,016
782,50	0,015
783,00	0,014
783,50	0,014
784,00	0,014
784,50	0,014
785,00	0,014
785,50	0,014
786,00	0,014
786,50	0,016
787,00	0,016
787,50	0,016
788,00	0,018
788,50	0,017
789,00	0,016
789,50	0,016
790,00	0,016
790,50	0,017
791,00	0,017
791,50	0,018
792,00	0,017
792,50	0,018
793,00	0,016
793,50	0,016
794,00	0,015
794,50	0,016
795,00	0,014
795,50	0,015
796,00	0,015
796,50	0,015
797,00	0,015
797,50	0,015
798,00	0,015
798,50	0,015
799,00	0,015
799,50	0,015
800,00	0,015