File: Lambda max, Extincion max y Area/oro/10/1e-4.txt
"1e-4 - Dataset 224702"
"Wavelength nm."	"Abs."
200,00	2,609
200,50	2,609
201,00	2,609
201,50	2,609
202,00	2,609
202,50	2,609
203,00	2,609
203,50	2,609
204,00	2,609
204,50	3,088
205,00	2,820
205,50	1,824
206,00	1,966
206,50	2,200
207,00	2,052
207,50	1,137
208,00	1,407
208,50	1,788
209,00	1,233
209,50	1,489
210,00	1,851
210,50	1,888
211,00	1,874
211,50	2,270
212,00	1,987
212,50	1,908
213,00	1,473
213,50	1,546
214,00	2,107
214,50	2,198
215,00	2,045
215,50	1,287
216,00	1,763
216,50	1,254
217,00	1,203
217,50	1,554
218,00	2,240
218,50	2,021
219,00	2,419
219,50	2,336
220,00	2,110
220,50	1,769
221,00	2,117
221,50	2,006
222,00	1,651
222,50	1,842
223,00	1,405
223,50	1,462
224,00	1,958
224,50	1,903
225,00	2,319
225,50	2,242
226,00	2,156
226,50	1,865
227,00	2,050
227,50	1,679
228,00	0,967
228,50	0,899
229,00	0,283
229,50	-0,102
230,00	0,274
230,50	0,769
231,00	0,369
231,50	1,282
232,00	1,497
232,50	1,790
233,00	1,960
233,50	2,024
234,00	1,949
234,50	1,796
235,00	1,429
235,50	1,000
236,00	0,476
236,50	0,614
237,00	0,287
237,50	0,551
238,00	0,040
238,50	0,078
239,00	-0,433
239,50	0,416
240,00	0,452
240,50	0,911
241,00	0,859
241,50	1,348
242,00	1,724
242,50	1,931
243,00	2,074
243,50	2,155
244,00	2,229
244,50	1,777
245,00	1,434
245,50	1,568
246,00	1,030
246,50	1,750
247,00	1,709
247,50	2,166
248,00	1,608
248,50	1,502
249,00	1,344
249,50	2,354
250,00	2,783
250,50	3,022
251,00	2,668
251,50	2,787
252,00	2,647
252,50	2,184
253,00	1,852
253,50	1,918
254,00	1,965
254,50	2,574
255,00	2,400
255,50	2,042
256,00	1,613
256,50	1,567
257,00	1,190
257,50	1,287
258,00	1,526
258,50	1,511
259,00	1,286
259,50	1,680
260,00	1,467
260,50	1,155
261,00	0,324
261,50	0,772
262,00	0,957
262,50	1,334
263,00	1,563
263,50	1,667
264,00	1,671
264,50	1,353
265,00	0,868
265,50	1,065
266,00	1,431
266,50	1,317
267,00	1,210
267,50	0,930
268,00	0,543
268,50	0,096
269,00	-0,394
269,50	-0,207
270,00	-0,539
270,50	-0,107
271,00	-0,104
271,50	-0,125
272,00	-0,187
272,50	-0,188
273,00	-0,176
273,50	-0,507
274,00	-0,227
274,50	0,064
275,00	0,263
275,50	0,400
276,00	0,612
276,50	0,742
277,00	0,824
277,50	0,910
278,00	0,908
278,50	0,929
279,00	0,828
279,50	0,702
280,00	0,506
280,50	0,356
281,00	0,112
281,50	-0,190
282,00	0,169
282,50	0,142
283,00	0,107
283,50	0,151
284,00	0,166
284,50	0,120
285,00	0,083
285,50	0,096
286,00	0,093
286,50	0,106
287,00	0,081
287,50	0,124
288,00	0,120
288,50	0,181
289,00	-0,169
289,50	0,095
290,00	0,383
290,50	0,618
291,00	0,813
291,50	0,945
292,00	1,026
292,50	1,051
293,00	1,039
293,50	0,979
294,00	0,878
294,50	0,729
295,00	0,562
295,50	0,408
296,00	0,166
296,50	-0,036
297,00	-0,326
297,50	0,048
298,00	0,096
298,50	0,105
299,00	0,118
299,50	0,110
300,00	0,113
300,50	0,110
301,00	0,112
301,50	0,116
302,00	0,122
302,50	0,125
303,00	0,128
303,50	0,128
304,00	0,132
304,50	0,126
305,00	0,131
305,50	0,127
306,00	0,118
306,50	0,115
307,00	0,116
307,50	0,112
308,00	0,114
308,50	0,108
309,00	0,105
309,50	0,108
310,00	0,110
310,50	0,110
311,00	0,110
311,50	0,110
312,00	0,110
312,50	0,106
313,00	0,111
313,50	0,109
314,00	0,108
314,50	0,108
315,00	0,111
315,50	0,109
316,00	0,109
316,50	0,109
317,00	0,110
317,50	0,112
318,00	0,112
318,50	0,116
319,00	0,115
319,50	0,113
320,00	0,113
320,50	0,111
321,00	0,111
321,50	0,109
322,00	0,109
322,50	0,108
323,00	0,108
323,50	0,108
324,00	0,107
324,50	0,110
325,00	0,110
325,50	0,111
326,00	0,111
326,50	0,115
327,00	0,113
327,50	0,112
328,00	0,111
328,50	0,109
329,00	0,109
329,50	0,109
330,00	0,110
330,50	0,109
331,00	0,109
331,50	0,108
332,00	0,108
332,50	0,109
333,00	0,107
333,50	0,109
334,00	0,110
334,50	0,109
335,00	0,107
335,50	0,107
336,00	0,104
336,50	0,103
337,00	0,104
337,50	0,104
338,00	0,107
338,50	0,107
339,00	0,106
339,50	0,106
340,00	0,107
340,50	0,106
341,00	0,107
341,50	0,109
342,00	0,110
342,50	0,109
343,00	0,110
343,50	0,108
344,00	0,106
344,50	0,106
345,00	0,106
345,50	0,106
346,00	0,106
346,50	0,104
347,00	0,103
347,50	0,102
348,00	0,101
348,50	0,100
349,00	0,102
349,50	0,102
350,00	0,103
350,50	0,103
351,00	0,104
351,50	0,104
352,00	0,105
352,50	0,104
353,00	0,103
353,50	0,103
354,00	0,102
354,50	0,101
355,00	0,100
355,50	0,100
356,00	0,101
356,50	0,100
357,00	0,099
357,50	0,098
358,00	0,096
358,50	0,097
359,00	0,096
359,50	0,098
360,00	0,098
360,50	0,097
361,00	0,097
361,50	0,098
362,00	0,100
362,50	0,100
363,00	0,101
363,50	0,101
364,00	0,099
364,50	0,098
365,00	0,096
365,50	0,095
366,00	0,094
366,50	0,096
367,00	0,097
367,50	0,099
368,00	0,099
368,50	0,101
369,00	0,100
369,50	0,100
370,00	0,099
370,50	0,098
371,00	0,097
371,50	0,095
372,00	0,093
372,50	0,092
373,00	0,091
373,50	0,090
374,00	0,091
374,50	0,093
375,00	0,094
375,50	0,096
376,00	0,095
376,50	0,096
377,00	0,094
377,50	0,094
378,00	0,094
378,50	0,093
379,00	0,093
379,50	0,093
380,00	0,092
380,50	0,092
381,00	0,091
381,50	0,091
382,00	0,091
382,50	0,091
383,00	0,091
383,50	0,091
384,00	0,091
384,50	0,092
385,00	0,092
385,50	0,092
386,00	0,092
386,50	0,092
387,00	0,091
387,50	0,092
388,00	0,090
388,50	0,090
389,00	0,091
389,50	0,092
390,00	0,092
390,50	0,092
391,00	0,093
391,50	0,093
392,00	0,093
392,50	0,093
393,00	0,094
393,50	0,093
394,00	0,092
394,50	0,091
395,00	0,091
395,50	0,091
396,00	0,091
396,50	0,091
397,00	0,091
397,50	0,091
398,00	0,091
398,50	0,091
399,00	0,090
399,50	0,090
400,00	0,090
400,50	0,089
401,00	0,089
401,50	0,087
402,00	0,087
402,50	0,087
403,00	0,088
403,50	0,087
404,00	0,086
404,50	0,087
405,00	0,087
405,50	0,087
406,00	0,088
406,50	0,089
407,00	0,089
407,50	0,090
408,00	0,090
408,50	0,090
409,00	0,091
409,50	0,090
410,00	0,090
410,50	0,089
411,00	0,089
411,50	0,089
412,00	0,089
412,50	0,089
413,00	0,088
413,50	0,089
414,00	0,090
414,50	0,090
415,00	0,090
415,50	0,089
416,00	0,089
416,50	0,089
417,00	0,088
417,50	0,088
418,00	0,088
418,50	0,088
419,00	0,088
419,50	0,088
420,00	0,088
420,50	0,088
421,00	0,088
421,50	0,089
422,00	0,089
422,50	0,088
423,00	0,088
423,50	0,087
424,00	0,086
424,50	0,086
425,00	0,085
425,50	0,085
426,00	0,085
426,50	0,085
427,00	0,085
427,50	0,085
428,00	0,086
428,50	0,086
429,00	0,087
429,50	0,087
430,00	0,087
430,50	0,087
431,00	0,086
431,50	0,086
432,00	0,086
432,50	0,087
433,00	0,088
433,50	0,087
434,00	0,087
434,50	0,087
435,00	0,087
435,50	0,086
436,00	0,087
436,50	0,087
437,00	0,087
437,50	0,087
438,00	0,087
438,50	0,087
439,00	0,087
439,50	0,087
440,00	0,088
440,50	0,088
441,00	0,089
441,50	0,087
442,00	0,087
442,50	0,087
443,00	0,086
443,50	0,086
444,00	0,086
444,50	0,086
445,00	0,086
445,50	0,087
446,00	0,088
446,50	0,087
447,00	0,087
447,50	0,087
448,00	0,087
448,50	0,087
449,00	0,087
449,50	0,086
450,00	0,087
450,50	0,087
451,00	0,087
451,50	0,088
452,00	0,089
452,50	0,090
453,00	0,090
453,50	0,091
454,00	0,091
454,50	0,091
455,00	0,091
455,50	0,090
456,00	0,090
456,50	0,090
457,00	0,089
457,50	0,088
458,00	0,088
458,50	0,088
459,00	0,087
459,50	0,088
460,00	0,087
460,50	0,089
461,00	0,089
461,50	0,090
462,00	0,090
462,50	0,091
463,00	0,092
463,50	0,092
464,00	0,092
464,50	0,092
465,00	0,091
465,50	0,092
466,00	0,093
466,50	0,093
467,00	0,093
467,50	0,093
468,00	0,093
468,50	0,094
469,00	0,094
469,50	0,094
470,00	0,094
470,50	0,094
471,00	0,094
471,50	0,093
472,00	0,093
472,50	0,094
473,00	0,095
473,50	0,096
474,00	0,097
474,50	0,097
475,00	0,098
475,50	0,098
476,00	0,098
476,50	0,098
477,00	0,099
477,50	0,099
478,00	0,100
478,50	0,100
479,00	0,101
479,50	0,101
480,00	0,101
480,50	0,102
481,00	0,102
481,50	0,103
482,00	0,103
482,50	0,103
483,00	0,104
483,50	0,104
484,00	0,104
484,50	0,104
485,00	0,105
485,50	0,106
486,00	0,106
486,50	0,107
487,00	0,108
487,50	0,109
488,00	0,109
488,50	0,110
489,00	0,110
489,50	0,111
490,00	0,112
490,50	0,112
491,00	0,113
491,50	0,113
492,00	0,114
492,50	0,114
493,00	0,115
493,50	0,115
494,00	0,116
494,50	0,117
495,00	0,117
495,50	0,117
496,00	0,118
496,50	0,118
497,00	0,119
497,50	0,120
498,00	0,121
498,50	0,122
499,00	0,122
499,50	0,124
500,00	0,125
500,50	0,125
501,00	0,126
501,50	0,126
502,00	0,127
502,50	0,127
503,00	0,127
503,50	0,128
504,00	0,129
504,50	0,130
505,00	0,131
505,50	0,132
506,00	0,132
506,50	0,133
507,00	0,133
507,50	0,134
508,00	0,134
508,50	0,135
509,00	0,135
509,50	0,135
510,00	0,135
510,50	0,135
511,00	0,135
511,50	0,136
512,00	0,136
512,50	0,136
513,00	0,135
513,50	0,136
514,00	0,137
514,50	0,137
515,00	0,137
515,50	0,138
516,00	0,139
516,50	0,140
517,00	0,139
517,50	0,140
518,00	0,140
518,50	0,140
519,00	0,141
519,50	0,141
520,00	0,140
520,50	0,140
521,00	0,139
521,50	0,139
522,00	0,138
522,50	0,138
523,00	0,138
523,50	0,139
524,00	0,138
524,50	0,138
525,00	0,138
525,50	0,137
526,00	0,137
526,50	0,136
527,00	0,136
527,50	0,136
528,00	0,135
528,50	0,134
529,00	0,132
529,50	0,130
530,00	0,129
530,50	0,128
531,00	0,128
531,50	0,127
532,00	0,126
532,50	0,126
533,00	0,125
533,50	0,124
534,00	0,124
534,50	0,124
535,00	0,123
535,50	0,122
536,00	0,121
536,50	0,120
537,00	0,118
537,50	0,116
538,00	0,114
538,50	0,113
539,00	0,113
539,50	0,111
540,00	0,110
540,50	0,108
541,00	0,107
541,50	0,106
542,00	0,105
542,50	0,104
543,00	0,104
543,50	0,103
544,00	0,103
544,50	0,101
545,00	0,100
545,50	0,099
546,00	0,098
546,50	0,098
547,00	0,096
547,50	0,094
548,00	0,093
548,50	0,091
549,00	0,090
549,50	0,089
550,00	0,087
550,50	0,086
551,00	0,085
551,50	0,084
552,00	0,083
552,50	0,082
553,00	0,080
553,50	0,079
554,00	0,078
554,50	0,078
555,00	0,077
555,50	0,076
556,00	0,075
556,50	0,074
557,00	0,073
557,50	0,072
558,00	0,071
558,50	0,070
559,00	0,069
559,50	0,068
560,00	0,067
560,50	0,066
561,00	0,065
561,50	0,064
562,00	0,064
562,50	0,063
563,00	0,062
563,50	0,061
564,00	0,061
564,50	0,059
565,00	0,059
565,50	0,058
566,00	0,057
566,50	0,057
567,00	0,056
567,50	0,055
568,00	0,054
568,50	0,052
569,00	0,052
569,50	0,051
570,00	0,050
570,50	0,049
571,00	0,048
571,50	0,047
572,00	0,047
572,50	0,047
573,00	0,047
573,50	0,046
574,00	0,045
574,50	0,045
575,00	0,044
575,50	0,043
576,00	0,042
576,50	0,041
577,00	0,041
577,50	0,040
578,00	0,040
578,50	0,039
579,00	0,038
579,50	0,038
580,00	0,037
580,50	0,038
581,00	0,037
581,50	0,038
582,00	0,038
582,50	0,037
583,00	0,037
583,50	0,037
584,00	0,036
584,50	0,035
585,00	0,035
585,50	0,035
586,00	0,033
586,50	0,032
587,00	0,031
587,50	0,030
588,00	0,029
588,50	0,029
589,00	0,029
589,50	0,029
590,00	0,029
590,50	0,029
591,00	0,029
591,50	0,029
592,00	0,029
592,50	0,030
593,00	0,030
593,50	0,029
594,00	0,028
594,50	0,027
595,00	0,026
595,50	0,025
596,00	0,024
596,50	0,024
597,00	0,024
597,50	0,023
598,00	0,023
598,50	0,023
599,00	0,024
599,50	0,024
600,00	0,025
600,50	0,025
601,00	0,026
601,50	0,026
602,00	0,025
602,50	0,025
603,00	0,024
603,50	0,023
604,00	0,022
604,50	0,021
605,00	0,021
605,50	0,020
606,00	0,020
606,50	0,019
607,00	0,019
607,50	0,019
608,00	0,019
608,50	0,020
609,00	0,020
609,50	0,019
610,00	0,019
610,50	0,019
611,00	0,018
611,50	0,018
612,00	0,017
612,50	0,017
613,00	0,018
613,50	0,017
614,00	0,017
614,50	0,017
615,00	0,017
615,50	0,017
616,00	0,017
616,50	0,016
617,00	0,016
617,50	0,016
618,00	0,016
618,50	0,015
619,00	0,015
619,50	0,015
620,00	0,015
620,50	0,015
621,00	0,015
621,50	0,014
622,00	0,014
622,50	0,014
623,00	0,014
623,50	0,013
624,00	0,014
624,50	0,014
625,00	0,013
625,50	0,014
626,00	0,013
626,50	0,013
627,00	0,013
627,50	0,013
628,00	0,012
628,50	0,012
629,00	0,011
629,50	0,011
630,00	0,011
630,50	0,011
631,00	0,011
631,50	0,011
632,00	0,011
632,50	0,011
633,00	0,011
633,50	0,011
634,00	0,010
634,50	0,010
635,00	0,010
635,50	0,010
636,00	0,010
636,50	0,010
637,00	0,010
637,50	0,010
638,00	0,010
638,50	0,010
639,00	0,010
639,50	0,010
640,00	0,010
640,50	0,009
641,00	0,009
641,50	0,009
642,00	0,008
642,50	0,008
643,00	0,009
643,50	0,009
644,00	0,009
644,50	0,009
645,00	0,010
645,50	0,009
646,00	0,009
646,50	0,010
647,00	0,010
647,50	0,010
648,00	0,009
648,50	0,008
649,00	0,008
649,50	0,008
650,00	0,008
650,50	0,009
651,00	0,009
651,50	0,009
652,00	0,009
652,50	0,010
653,00	0,010
653,50	0,010
654,00	0,010
654,50	0,011
655,00	0,010
655,50	0,009
656,00	0,009
656,50	0,009
657,00	0,009
657,50	0,009
658,00	0,008
658,50	0,008
659,00	0,009
659,50	0,009
660,00	0,009
660,50	0,009
661,00	0,008
661,50	0,008
662,00	0,008
662,50	0,009
663,00	0,008
663,50	0,008
664,00	0,007
664,50	0,007
665,00	0,007
665,50	0,007
666,00	0,006
666,50	0,007
667,00	0,007
667,50	0,007
668,00	0,007
668,50	0,007
669,00	0,008
669,50	0,008
670,00	0,008
670,50	0,008
671,00	0,007
671,50	0,007
672,00	0,007
672,50	0,007
673,00	0,008
673,50	0,007
674,00	0,007
674,50	0,007
675,00	0,007
675,50	0,006
676,00	0,006
676,50	0,006
677,00	0,006
677,50	0,005
678,00	0,005
678,50	0,005
679,00	0,005
679,50	0,006
680,00	0,006
680,50	0,006
681,00	0,007
681,50	0,006
682,00	0,006
682,50	0,006
683,00	0,005
683,50	0,005
684,00	0,005
684,50	0,006
685,00	0,005
685,50	0,006
686,00	0,006
686,50	0,006
687,00	0,005
687,50	0,006
688,00	0,006
688,50	0,006
689,00	0,004
689,50	0,003
690,00	0,003
690,50	0,002
691,00	0,003
691,50	0,003
692,00	0,002
692,50	0,002
693,00	0,003
693,50	0,004
694,00	0,004
694,50	0,005
695,00	0,006
695,50	0,007
696,00	0,006
696,50	0,005
697,00	0,004
697,50	0,004
698,00	0,003
698,50	0,002
699,00	0,002
699,50	0,001
700,00	0,002
700,50	0,002
701,00	0,004
701,50	0,004
702,00	0,005
702,50	0,005
703,00	0,007
703,50	0,007
704,00	0,006
704,50	0,006
705,00	0,005
705,50	0,006
706,00	0,006
706,50	0,005
707,00	0,005
707,50	0,005
708,00	0,006
708,50	0,006
709,00	0,006
709,50	0,005
710,00	0,004
710,50	0,004
711,00	0,003
711,50	0,002
712,00	0,001
712,50	0,003
713,00	0,003
713,50	0,002
714,00	0,003
714,50	0,004
715,00	0,004
715,50	0,004
716,00	0,005
716,50	0,004
717,00	0,003
717,50	0,003
718,00	0,003
718,50	0,003
719,00	0,001
719,50	0,001
720,00	0,001
720,50	0,002
721,00	0,001
721,50	0,001
722,00	0,003
722,50	0,005
723,00	0,004
723,50	0,005
724,00	0,005
724,50	0,005
725,00	0,006
725,50	0,007
726,00	0,007
726,50	0,006
727,00	0,005
727,50	0,004
728,00	0,003
728,50	0,002
729,00	0,001
729,50	0,002
730,00	0,003
730,50	0,004
731,00	0,004
731,50	0,004
732,00	0,004
732,50	0,004
733,00	0,004
733,50	0,004
734,00	0,004
734,50	0,003
735,00	0,002
735,50	0,001
736,00	0,001
736,50	0,000
737,00	0,001
737,50	0,002
738,00	0,002
738,50	0,003
739,00	0,003
739,50	0,004
740,00	0,005
740,50	0,003
741,00	0,004
741,50	0,003
742,00	0,002
742,50	0,002
743,00	0,002
743,50	0,003
744,00	0,002
744,50	0,002
745,00	0,002
745,50	0,003
746,00	0,001
746,50	0,002
747,00	0,001
747,50	0,002
748,00	0,001
748,50	0,000
749,00	0,000
749,50	0,000
750,00	-0,000
750,50	0,001
751,00	0,002
751,50	0,003
752,00	0,003
752,50	0,004
753,00	0,005
753,50	0,005
754,00	0,004
754,50	0,004
755,00	0,003
755,50	0,002
756,00	0,002
756,50	0,003
757,00	0,001
757,50	0,002
758,00	0,001
758,50	0,001
759,00	0,001
759,50	-0,001
760,00	-0,001
760,50	-0,000
761,00	-0,000
761,50	-0,000
762,00	-0,000
762,50	-0,002
763,00	-0,002
763,50	-0,002
764,00	-0,001
764,50	-0,001
765,00	-0,001
765,50	0,000
766,00	0,000
766,50	0,000
767,00	0,001
767,50	0,001
768,00	0,001
768,50	0,003
769,00	0,004
769,50	0,004
770,00	0,003
770,50	0,002
771,00	0,003
771,50	0,003
772,00	0,003
772,50	0,003
773,00	0,002
773,50	0,002
774,00	0,003
774,50	0,002
775,00	0,003
775,50	0,002
776,00	0,002
776,50	0,002
777,00	0,001
777,50	-0,000
778,00	-0,000
778,50	0,001
779,00	0,002
779,50	0,001
780,00	0,003
780,50	0,003
781,00	0,001
781,50	0,003
782,00	0,005
782,50	0,005
783,00	0,006
783,50	0,006
784,00	0,005
784,50	0,004
785,00	0,004
785,50	0,005
786,00	0,005
786,50	0,005
787,00	0,004
787,50	0,004
788,00	0,005
788,50	0,004
789,00	0,004
789,50	0,005
790,00	0,005
790,50	0,005
791,00	0,003
791,50	0,003
792,00	0,002
792,50	0,000
793,00	0,001
793,50	0,000
794,00	0,000
794,50	-0,001
795,00	-0,002
795,50	-0,001
796,00	-0,001
796,50	-0,001
797,00	-0,001
797,50	-0,001
798,00	-0,001
798,50	-0,001
799,00	-0,001
799,50	-0,001
800,00	-0,001