File: Espectro Uv-Vis/pH/0.25ml 1M (pH=2.5)/0.24_1M.txt
"0.25_1M - Dataset 182155"
"Wavelength nm."	"Abs."
200,00	-0,156
200,50	-0,156
201,00	-0,156
201,50	-0,156
202,00	-0,156
202,50	-0,156
203,00	-0,156
203,50	-0,156
204,00	-0,156
204,50	0,508
205,00	0,184
205,50	0,061
206,00	1,114
206,50	1,127
207,00	1,644
207,50	2,323
208,00	2,778
208,50	3,690
209,00	3,732
209,50	4,194
210,00	4,426
210,50	4,180
211,00	3,303
211,50	2,913
212,00	2,482
212,50	2,783
213,00	2,284
213,50	2,269
214,00	2,356
214,50	1,848
215,00	1,421
215,50	1,165
216,00	1,352
216,50	1,305
217,00	1,203
217,50	1,790
218,00	1,338
218,50	0,915
219,00	1,064
219,50	1,645
220,00	1,393
220,50	2,252
221,00	2,222
221,50	2,344
222,00	2,904
222,50	3,159
223,00	3,226
223,50	3,664
224,00	3,385
224,50	2,956
225,00	2,991
225,50	2,411
226,00	1,534
226,50	0,926
227,00	1,131
227,50	0,789
228,00	0,441
228,50	0,140
229,00	0,277
229,50	0,630
230,00	1,205
230,50	1,351
231,00	1,405
231,50	1,345
232,00	0,830
232,50	1,001
233,00	0,611
233,50	0,792
234,00	0,855
234,50	0,875
235,00	1,386
235,50	1,079
236,00	1,366
236,50	1,054
237,00	2,017
237,50	2,143
238,00	1,891
238,50	2,179
239,00	2,195
239,50	2,177
240,00	1,858
240,50	1,690
241,00	1,618
241,50	1,697
242,00	1,519
242,50	1,913
243,00	1,584
243,50	1,770
244,00	2,335
244,50	2,370
245,00	2,878
245,50	2,689
246,00	2,016
246,50	2,530
247,00	2,394
247,50	1,857
248,00	1,331
248,50	1,354
249,00	1,749
249,50	1,513
250,00	1,719
250,50	2,000
251,00	1,759
251,50	2,207
252,00	2,109
252,50	1,973
253,00	1,655
253,50	1,157
254,00	0,615
254,50	0,638
255,00	-0,227
255,50	-0,360
256,00	-0,053
256,50	0,577
257,00	0,585
257,50	0,584
258,00	0,499
258,50	0,475
259,00	0,107
259,50	-0,017
260,00	0,402
260,50	0,799
261,00	1,106
261,50	0,862
262,00	1,185
262,50	1,311
263,00	1,003
263,50	1,924
264,00	2,326
264,50	2,567
265,00	2,560
265,50	2,019
266,00	1,962
266,50	1,727
267,00	1,322
267,50	1,386
268,00	1,250
268,50	1,316
269,00	1,192
269,50	0,941
270,00	0,878
270,50	1,005
271,00	0,682
271,50	1,127
272,00	1,364
272,50	1,933
273,00	2,339
273,50	2,501
274,00	3,194
274,50	3,323
275,00	3,306
275,50	3,028
276,00	2,496
276,50	2,596
277,00	2,148
277,50	1,622
278,00	0,908
278,50	0,710
279,00	-0,056
279,50	-0,204
280,00	-0,133
280,50	0,207
281,00	0,188
281,50	0,177
282,00	0,171
282,50	0,158
283,00	0,131
283,50	0,107
284,00	0,026
284,50	0,106
285,00	0,114
285,50	0,145
286,00	0,145
286,50	0,129
287,00	0,124
287,50	0,134
288,00	0,135
288,50	0,140
289,00	0,135
289,50	0,139
290,00	0,141
290,50	0,140
291,00	0,138
291,50	0,137
292,00	0,137
292,50	0,135
293,00	0,133
293,50	0,132
294,00	0,132
294,50	0,131
295,00	0,132
295,50	0,134
296,00	0,136
296,50	0,137
297,00	0,137
297,50	0,137
298,00	0,137
298,50	0,137
299,00	0,138
299,50	0,139
300,00	0,139
300,50	0,139
301,00	0,139
301,50	0,140
302,00	0,140
302,50	0,139
303,00	0,139
303,50	0,138
304,00	0,138
304,50	0,138
305,00	0,138
305,50	0,138
306,00	0,138
306,50	0,138
307,00	0,138
307,50	0,138
308,00	0,138
308,50	0,138
309,00	0,138
309,50	0,138
310,00	0,138
310,50	0,138
311,00	0,137
311,50	0,137
312,00	0,137
312,50	0,137
313,00	0,136
313,50	0,136
314,00	0,135
314,50	0,135
315,00	0,135
315,50	0,135
316,00	0,134
316,50	0,134
317,00	0,134
317,50	0,134
318,00	0,134
318,50	0,134
319,00	0,134
319,50	0,134
320,00	0,134
320,50	0,134
321,00	0,133
321,50	0,133
322,00	0,133
322,50	0,132
323,00	0,132
323,50	0,132
324,00	0,132
324,50	0,131
325,00	0,131
325,50	0,131
326,00	0,131
326,50	0,131
327,00	0,131
327,50	0,131
328,00	0,131
328,50	0,131
329,00	0,131
329,50	0,131
330,00	0,130
330,50	0,130
331,00	0,130
331,50	0,130
332,00	0,130
332,50	0,130
333,00	0,130
333,50	0,130
334,00	0,129
334,50	0,129
335,00	0,129
335,50	0,129
336,00	0,129
336,50	0,129
337,00	0,129
337,50	0,129
338,00	0,129
338,50	0,129
339,00	0,129
339,50	0,129
340,00	0,129
340,50	0,129
341,00	0,129
341,50	0,129
342,00	0,129
342,50	0,128
343,00	0,128
343,50	0,128
344,00	0,128
344,50	0,128
345,00	0,128
345,50	0,128
346,00	0,128
346,50	0,128
347,00	0,128
347,50	0,128
348,00	0,128
348,50	0,128
349,00	0,128
349,50	0,128
350,00	0,128
350,50	0,128
351,00	0,128
351,50	0,128
352,00	0,128
352,50	0,128
353,00	0,128
353,50	0,128
354,00	0,128
354,50	0,128
355,00	0,128
355,50	0,128
356,00	0,128
356,50	0,128
357,00	0,128
357,50	0,128
358,00	0,128
358,50	0,128
359,00	0,128
359,50	0,128
360,00	0,128
360,50	0,128
361,00	0,128
361,50	0,128
362,00	0,128
362,50	0,128
363,00	0,128
363,50	0,128
364,00	0,128
364,50	0,128
365,00	0,128
365,50	0,128
366,00	0,128
366,50	0,129
367,00	0,129
367,50	0,129
368,00	0,129
368,50	0,130
369,00	0,130
369,50	0,130
370,00	0,130
370,50	0,130
371,00	0,130
371,50	0,130
372,00	0,130
372,50	0,130
373,00	0,130
373,50	0,130
374,00	0,130
374,50	0,130
375,00	0,130
375,50	0,130
376,00	0,130
376,50	0,130
377,00	0,130
377,50	0,130
378,00	0,130
378,50	0,130
379,00	0,130
379,50	0,129
380,00	0,129
380,50	0,129
381,00	0,129
381,50	0,129
382,00	0,129
382,50	0,129
383,00	0,129
383,50	0,129
384,00	0,129
384,50	0,129
385,00	0,129
385,50	0,129
386,00	0,129
386,50	0,129
387,00	0,129
387,50	0,129
388,00	0,129
388,50	0,129
389,00	0,129
389,50	0,129
390,00	0,129
390,50	0,129
391,00	0,129
391,50	0,129
392,00	0,129
392,50	0,129
393,00	0,129
393,50	0,129
394,00	0,129
394,50	0,129
395,00	0,129
395,50	0,129
396,00	0,129
396,50	0,129
397,00	0,129
397,50	0,129
398,00	0,129
398,50	0,129
399,00	0,129
399,50	0,129
400,00	0,129
400,50	0,129
401,00	0,129
401,50	0,128
402,00	0,128
402,50	0,128
403,00	0,128
403,50	0,128
404,00	0,128
404,50	0,128
405,00	0,128
405,50	0,128
406,00	0,128
406,50	0,128
407,00	0,128
407,50	0,128
408,00	0,128
408,50	0,128
409,00	0,128
409,50	0,128
410,00	0,128
410,50	0,128
411,00	0,128
411,50	0,127
412,00	0,127
412,50	0,127
413,00	0,127
413,50	0,127
414,00	0,127
414,50	0,127
415,00	0,127
415,50	0,127
416,00	0,127
416,50	0,127
417,00	0,127
417,50	0,127
418,00	0,127
418,50	0,127
419,00	0,127
419,50	0,127
420,00	0,127
420,50	0,127
421,00	0,127
421,50	0,127
422,00	0,126
422,50	0,126
423,00	0,126
423,50	0,126
424,00	0,126
424,50	0,126
425,00	0,126
425,50	0,126
426,00	0,126
426,50	0,126
427,00	0,126
427,50	0,125
428,00	0,126
428,50	0,126
429,00	0,125
429,50	0,125
430,00	0,125
430,50	0,125
431,00	0,125
431,50	0,125
432,00	0,125
432,50	0,125
433,00	0,125
433,50	0,125
434,00	0,125
434,50	0,125
435,00	0,125
435,50	0,125
436,00	0,125
436,50	0,125
437,00	0,124
437,50	0,124
438,00	0,124
438,50	0,124
439,00	0,124
439,50	0,124
440,00	0,124
440,50	0,124
441,00	0,124
441,50	0,124
442,00	0,124
442,50	0,123
443,00	0,123
443,50	0,123
444,00	0,123
444,50	0,123
445,00	0,123
445,50	0,123
446,00	0,123
446,50	0,123
447,00	0,123
447,50	0,123
448,00	0,122
448,50	0,122
449,00	0,122
449,50	0,122
450,00	0,122
450,50	0,122
451,00	0,122
451,50	0,122
452,00	0,122
452,50	0,122
453,00	0,122
453,50	0,122
454,00	0,121
454,50	0,121
455,00	0,121
455,50	0,121
456,00	0,121
456,50	0,121
457,00	0,121
457,50	0,121
458,00	0,121
458,50	0,121
459,00	0,121
459,50	0,120
460,00	0,120
460,50	0,120
461,00	0,120
461,50	0,120
462,00	0,120
462,50	0,120
463,00	0,120
463,50	0,120
464,00	0,120
464,50	0,120
465,00	0,119
465,50	0,119
466,00	0,119
466,50	0,119
467,00	0,119
467,50	0,119
468,00	0,119
468,50	0,119
469,00	0,119
469,50	0,119
470,00	0,118
470,50	0,118
471,00	0,118
471,50	0,118
472,00	0,118
472,50	0,118
473,00	0,118
473,50	0,118
474,00	0,117
474,50	0,117
475,00	0,117
475,50	0,117
476,00	0,117
476,50	0,117
477,00	0,117
477,50	0,117
478,00	0,117
478,50	0,117
479,00	0,117
479,50	0,117
480,00	0,117
480,50	0,117
481,00	0,117
481,50	0,117
482,00	0,117
482,50	0,117
483,00	0,117
483,50	0,117
484,00	0,117
484,50	0,117
485,00	0,117
485,50	0,117
486,00	0,117
486,50	0,117
487,00	0,117
487,50	0,117
488,00	0,117
488,50	0,117
489,00	0,117
489,50	0,117
490,00	0,117
490,50	0,117
491,00	0,118
491,50	0,118
492,00	0,118
492,50	0,118
493,00	0,118
493,50	0,118
494,00	0,119
494,50	0,119
495,00	0,119
495,50	0,119
496,00	0,119
496,50	0,120
497,00	0,120
497,50	0,120
498,00	0,120
498,50	0,121
499,00	0,121
499,50	0,121
500,00	0,122
500,50	0,122
501,00	0,123
501,50	0,123
502,00	0,123
502,50	0,124
503,00	0,124
503,50	0,124
504,00	0,125
504,50	0,125
505,00	0,125
505,50	0,126
506,00	0,126
506,50	0,126
507,00	0,127
507,50	0,127
508,00	0,128
508,50	0,128
509,00	0,128
509,50	0,129
510,00	0,129
510,50	0,130
511,00	0,130
511,50	0,130
512,00	0,131
512,50	0,131
513,00	0,132
513,50	0,132
514,00	0,132
514,50	0,133
515,00	0,133
515,50	0,134
516,00	0,134
516,50	0,134
517,00	0,135
517,50	0,135
518,00	0,135
518,50	0,136
519,00	0,136
519,50	0,137
520,00	0,137
520,50	0,137
521,00	0,138
521,50	0,138
522,00	0,139
522,50	0,139
523,00	0,139
523,50	0,139
524,00	0,140
524,50	0,140
525,00	0,140
525,50	0,141
526,00	0,141
526,50	0,141
527,00	0,141
527,50	0,142
528,00	0,142
528,50	0,142
529,00	0,143
529,50	0,143
530,00	0,143
530,50	0,143
531,00	0,144
531,50	0,144
532,00	0,144
532,50	0,145
533,00	0,145
533,50	0,145
534,00	0,145
534,50	0,146
535,00	0,146
535,50	0,146
536,00	0,146
536,50	0,147
537,00	0,147
537,50	0,147
538,00	0,147
538,50	0,147
539,00	0,148
539,50	0,148
540,00	0,148
540,50	0,148
541,00	0,148
541,50	0,148
542,00	0,149
542,50	0,149
543,00	0,149
543,50	0,149
544,00	0,150
544,50	0,150
545,00	0,150
545,50	0,150
546,00	0,150
546,50	0,151
547,00	0,151
547,50	0,151
548,00	0,151
548,50	0,151
549,00	0,152
549,50	0,152
550,00	0,152
550,50	0,152
551,00	0,152
551,50	0,152
552,00	0,152
552,50	0,152
553,00	0,153
553,50	0,153
554,00	0,153
554,50	0,153
555,00	0,153
555,50	0,153
556,00	0,154
556,50	0,154
557,00	0,154
557,50	0,154
558,00	0,154
558,50	0,154
559,00	0,154
559,50	0,154
560,00	0,155
560,50	0,155
561,00	0,155
561,50	0,155
562,00	0,155
562,50	0,155
563,00	0,155
563,50	0,155
564,00	0,155
564,50	0,156
565,00	0,156
565,50	0,156
566,00	0,156
566,50	0,156
567,00	0,156
567,50	0,156
568,00	0,156
568,50	0,156
569,00	0,156
569,50	0,156
570,00	0,157
570,50	0,157
571,00	0,157
571,50	0,157
572,00	0,157
572,50	0,157
573,00	0,157
573,50	0,157
574,00	0,157
574,50	0,157
575,00	0,157
575,50	0,158
576,00	0,158
576,50	0,158
577,00	0,158
577,50	0,158
578,00	0,158
578,50	0,158
579,00	0,158
579,50	0,158
580,00	0,158
580,50	0,158
581,00	0,158
581,50	0,158
582,00	0,158
582,50	0,158
583,00	0,158
583,50	0,158
584,00	0,158
584,50	0,158
585,00	0,159
585,50	0,159
586,00	0,159
586,50	0,159
587,00	0,159
587,50	0,159
588,00	0,159
588,50	0,159
589,00	0,159
589,50	0,159
590,00	0,159
590,50	0,159
591,00	0,159
591,50	0,159
592,00	0,159
592,50	0,159
593,00	0,159
593,50	0,159
594,00	0,159
594,50	0,159
595,00	0,159
595,50	0,159
596,00	0,159
596,50	0,159
597,00	0,159
597,50	0,159
598,00	0,159
598,50	0,159
599,00	0,159
599,50	0,158
600,00	0,158
600,50	0,158
601,00	0,158
601,50	0,158
602,00	0,158
602,50	0,158
603,00	0,158
603,50	0,158
604,00	0,158
604,50	0,158
605,00	0,158
605,50	0,158
606,00	0,158
606,50	0,158
607,00	0,158
607,50	0,158
608,00	0,158
608,50	0,158
609,00	0,158
609,50	0,158
610,00	0,158
610,50	0,158
611,00	0,158
611,50	0,157
612,00	0,157
612,50	0,157
613,00	0,157
613,50	0,157
614,00	0,157
614,50	0,157
615,00	0,157
615,50	0,157
616,00	0,157
616,50	0,157
617,00	0,157
617,50	0,157
618,00	0,157
618,50	0,157
619,00	0,157
619,50	0,157
620,00	0,157
620,50	0,156
621,00	0,156
621,50	0,156
622,00	0,156
622,50	0,156
623,00	0,156
623,50	0,156
624,00	0,156
624,50	0,156
625,00	0,156
625,50	0,156
626,00	0,155
626,50	0,155
627,00	0,155
627,50	0,155
628,00	0,155
628,50	0,155
629,00	0,155
629,50	0,155
630,00	0,155
630,50	0,155
631,00	0,155
631,50	0,155
632,00	0,155
632,50	0,154
633,00	0,154
633,50	0,154
634,00	0,154
634,50	0,154
635,00	0,154
635,50	0,154
636,00	0,154
636,50	0,154
637,00	0,154
637,50	0,153
638,00	0,153
638,50	0,153
639,00	0,153
639,50	0,153
640,00	0,153
640,50	0,153
641,00	0,153
641,50	0,153
642,00	0,153
642,50	0,152
643,00	0,152
643,50	0,152
644,00	0,152
644,50	0,152
645,00	0,152
645,50	0,152
646,00	0,152
646,50	0,152
647,00	0,152
647,50	0,151
648,00	0,151
648,50	0,151
649,00	0,151
649,50	0,151
650,00	0,151
650,50	0,151
651,00	0,151
651,50	0,151
652,00	0,150
652,50	0,150
653,00	0,150
653,50	0,150
654,00	0,150
654,50	0,150
655,00	0,150
655,50	0,150
656,00	0,149
656,50	0,149
657,00	0,149
657,50	0,149
658,00	0,149
658,50	0,149
659,00	0,149
659,50	0,149
660,00	0,149
660,50	0,149
661,00	0,149
661,50	0,149
662,00	0,149
662,50	0,149
663,00	0,148
663,50	0,148
664,00	0,148
664,50	0,148
665,00	0,148
665,50	0,148
666,00	0,148
666,50	0,148
667,00	0,148
667,50	0,147
668,00	0,147
668,50	0,147
669,00	0,147
669,50	0,147
670,00	0,147
670,50	0,147
671,00	0,147
671,50	0,147
672,00	0,146
672,50	0,146
673,00	0,146
673,50	0,146
674,00	0,146
674,50	0,146
675,00	0,146
675,50	0,146
676,00	0,146
676,50	0,145
677,00	0,145
677,50	0,145
678,00	0,145
678,50	0,145
679,00	0,145
679,50	0,145
680,00	0,145
680,50	0,145
681,00	0,145
681,50	0,145
682,00	0,145
682,50	0,145
683,00	0,144
683,50	0,144
684,00	0,144
684,50	0,144
685,00	0,144
685,50	0,144
686,00	0,144
686,50	0,144
687,00	0,144
687,50	0,144
688,00	0,143
688,50	0,143
689,00	0,143
689,50	0,143
690,00	0,143
690,50	0,143
691,00	0,143
691,50	0,143
692,00	0,143
692,50	0,142
693,00	0,142
693,50	0,142
694,00	0,142
694,50	0,142
695,00	0,142
695,50	0,142
696,00	0,142
696,50	0,142
697,00	0,142
697,50	0,142
698,00	0,142
698,50	0,142
699,00	0,142
699,50	0,142
700,00	0,142
700,50	0,142
701,00	0,142
701,50	0,141
702,00	0,141
702,50	0,141
703,00	0,141
703,50	0,141
704,00	0,141
704,50	0,141
705,00	0,141
705,50	0,141
706,00	0,141
706,50	0,141
707,00	0,140
707,50	0,140
708,00	0,140
708,50	0,140
709,00	0,140
709,50	0,140
710,00	0,140
710,50	0,140
711,00	0,140
711,50	0,140
712,00	0,140
712,50	0,140
713,00	0,140
713,50	0,140
714,00	0,140
714,50	0,140
715,00	0,140
715,50	0,139
716,00	0,139
716,50	0,139
717,00	0,139
717,50	0,139
718,00	0,139
718,50	0,139
719,00	0,139
719,50	0,139
720,00	0,139
720,50	0,139
721,00	0,139
721,50	0,139
722,00	0,139
722,50	0,138
723,00	0,138
723,50	0,138
724,00	0,138
724,50	0,138
725,00	0,138
725,50	0,138
726,00	0,138
726,50	0,138
727,00	0,138
727,50	0,138
728,00	0,138
728,50	0,138
729,00	0,138
729,50	0,138
730,00	0,138
730,50	0,138
731,00	0,138
731,50	0,138
732,00	0,138
732,50	0,138
733,00	0,138
733,50	0,137
734,00	0,137
734,50	0,137
735,00	0,137
735,50	0,137
736,00	0,137
736,50	0,137
737,00	0,137
737,50	0,137
738,00	0,137
738,50	0,137
739,00	0,137
739,50	0,137
740,00	0,137
740,50	0,137
741,00	0,137
741,50	0,136
742,00	0,136
742,50	0,136
743,00	0,136
743,50	0,136
744,00	0,136
744,50	0,136
745,00	0,136
745,50	0,136
746,00	0,136
746,50	0,136
747,00	0,136
747,50	0,136
748,00	0,136
748,50	0,136
749,00	0,136
749,50	0,136
750,00	0,136
750,50	0,136
751,00	0,136
751,50	0,136
752,00	0,136
752,50	0,136
753,00	0,136
753,50	0,135
754,00	0,135
754,50	0,135
755,00	0,135
755,50	0,135
756,00	0,135
756,50	0,135
757,00	0,135
757,50	0,135
758,00	0,135
758,50	0,135
759,00	0,135
759,50	0,135
760,00	0,135
760,50	0,135
761,00	0,135
761,50	0,135
762,00	0,135
762,50	0,135
763,00	0,134
763,50	0,134
764,00	0,134
764,50	0,134
765,00	0,134
765,50	0,134
766,00	0,134
766,50	0,134
767,00	0,134
767,50	0,134
768,00	0,134
768,50	0,134
769,00	0,134
769,50	0,134
770,00	0,134
770,50	0,134
771,00	0,134
771,50	0,134
772,00	0,134
772,50	0,133
773,00	0,133
773,50	0,133
774,00	0,133
774,50	0,133
775,00	0,133
775,50	0,133
776,00	0,133
776,50	0,133
777,00	0,133
777,50	0,133
778,00	0,133
778,50	0,133
779,00	0,133
779,50	0,133
780,00	0,133
780,50	0,132
781,00	0,132
781,50	0,132
782,00	0,132
782,50	0,132
783,00	0,132
783,50	0,132
784,00	0,132
784,50	0,132
785,00	0,132
785,50	0,132
786,00	0,132
786,50	0,132
787,00	0,132
787,50	0,132
788,00	0,132
788,50	0,132
789,00	0,132
789,50	0,132
790,00	0,132
790,50	0,132
791,00	0,132
791,50	0,132
792,00	0,132
792,50	0,132
793,00	0,132
793,50	0,132
794,00	0,132
794,50	0,132
795,00	0,132
795,50	0,132
796,00	0,132
796,50	0,132
797,00	0,132
797,50	0,132
798,00	0,132
798,50	0,132
799,00	0,132
799,50	0,132
800,00	0,132