File: Espectro Uv-Vis/pH/0.25ml 1M (pH=2.5)/0.25_1M.txt
"0.25_1M(2) - Dataset 191141"
"Wavelength nm."	"Abs."
200,00	0,232
200,50	0,232
201,00	0,232
201,50	0,232
202,00	0,232
202,50	0,232
203,00	0,232
203,50	0,232
204,00	0,232
204,50	0,066
205,00	0,049
205,50	0,929
206,00	1,269
206,50	1,000
207,00	0,949
207,50	1,304
208,00	1,305
208,50	2,596
209,00	2,640
209,50	3,176
210,00	3,519
210,50	3,426
211,00	3,342
211,50	2,834
212,00	1,938
212,50	2,197
213,00	1,764
213,50	1,899
214,00	1,425
214,50	0,787
215,00	0,672
215,50	0,794
216,00	0,568
216,50	0,888
217,00	0,463
217,50	0,422
218,00	0,596
218,50	0,492
219,00	0,400
219,50	0,219
220,00	-0,286
220,50	0,389
221,00	0,243
221,50	0,408
222,00	1,107
222,50	1,670
223,00	2,082
223,50	2,363
224,00	2,460
224,50	2,458
225,00	2,207
225,50	1,506
226,00	2,035
226,50	1,949
227,00	1,689
227,50	1,325
228,00	0,742
228,50	0,653
229,00	0,406
229,50	0,472
230,00	0,787
230,50	0,267
231,00	0,372
231,50	0,422
232,00	0,090
232,50	0,331
233,00	0,459
233,50	0,506
234,00	1,223
234,50	1,034
235,00	1,413
235,50	1,303
236,00	1,706
236,50	1,636
237,00	1,835
237,50	2,201
238,00	2,060
238,50	2,364
239,00	3,027
239,50	3,211
240,00	3,127
240,50	3,110
241,00	3,175
241,50	2,673
242,00	2,279
242,50	2,256
243,00	2,576
243,50	1,859
244,00	2,171
244,50	2,089
245,00	2,436
245,50	2,347
246,00	2,327
246,50	2,813
247,00	2,674
247,50	2,133
248,00	1,955
248,50	1,712
249,00	1,790
249,50	1,361
250,00	1,411
250,50	1,616
251,00	0,860
251,50	0,750
252,00	1,130
252,50	1,173
253,00	1,020
253,50	0,609
254,00	0,891
254,50	0,306
255,00	-0,047
255,50	0,217
256,00	0,991
256,50	1,461
257,00	1,546
257,50	1,595
258,00	1,410
258,50	1,294
259,00	0,654
259,50	0,892
260,00	1,232
260,50	1,505
261,00	1,239
261,50	1,058
262,00	1,400
262,50	1,460
263,00	1,994
263,50	2,680
264,00	2,851
264,50	2,926
265,00	2,313
265,50	1,858
266,00	1,499
266,50	1,718
267,00	1,575
267,50	1,942
268,00	2,310
268,50	2,103
269,00	1,769
269,50	2,004
270,00	2,443
270,50	2,281
271,00	1,632
271,50	1,173
272,00	1,196
272,50	1,048
273,00	0,688
273,50	0,500
274,00	1,124
274,50	1,877
275,00	2,174
275,50	2,347
276,00	2,291
276,50	2,180
277,00	2,027
277,50	1,826
278,00	1,470
278,50	0,961
279,00	0,370
279,50	0,340
280,00	0,529
280,50	0,319
281,00	0,044
281,50	-0,211
282,00	0,156
282,50	0,132
283,00	0,146
283,50	0,137
284,00	0,094
284,50	0,071
285,00	0,067
285,50	0,117
286,00	0,115
286,50	0,132
287,00	0,135
287,50	0,139
288,00	0,139
288,50	0,145
289,00	0,143
289,50	0,148
290,00	0,151
290,50	0,152
291,00	0,152
291,50	0,150
292,00	0,146
292,50	0,143
293,00	0,138
293,50	0,135
294,00	0,133
294,50	0,131
295,00	0,132
295,50	0,133
296,00	0,135
296,50	0,138
297,00	0,141
297,50	0,143
298,00	0,146
298,50	0,147
299,00	0,149
299,50	0,151
300,00	0,152
300,50	0,152
301,00	0,153
301,50	0,153
302,00	0,153
302,50	0,153
303,00	0,152
303,50	0,152
304,00	0,152
304,50	0,152
305,00	0,152
305,50	0,152
306,00	0,152
306,50	0,152
307,00	0,152
307,50	0,152
308,00	0,152
308,50	0,152
309,00	0,152
309,50	0,152
310,00	0,152
310,50	0,152
311,00	0,151
311,50	0,151
312,00	0,151
312,50	0,151
313,00	0,150
313,50	0,150
314,00	0,150
314,50	0,149
315,00	0,149
315,50	0,149
316,00	0,149
316,50	0,148
317,00	0,148
317,50	0,148
318,00	0,148
318,50	0,148
319,00	0,148
319,50	0,148
320,00	0,147
320,50	0,147
321,00	0,147
321,50	0,146
322,00	0,146
322,50	0,146
323,00	0,146
323,50	0,145
324,00	0,145
324,50	0,145
325,00	0,145
325,50	0,145
326,00	0,144
326,50	0,144
327,00	0,144
327,50	0,144
328,00	0,144
328,50	0,144
329,00	0,143
329,50	0,143
330,00	0,143
330,50	0,143
331,00	0,142
331,50	0,142
332,00	0,142
332,50	0,142
333,00	0,142
333,50	0,142
334,00	0,142
334,50	0,142
335,00	0,142
335,50	0,142
336,00	0,142
336,50	0,142
337,00	0,141
337,50	0,141
338,00	0,141
338,50	0,141
339,00	0,141
339,50	0,140
340,00	0,140
340,50	0,140
341,00	0,140
341,50	0,140
342,00	0,140
342,50	0,140
343,00	0,140
343,50	0,140
344,00	0,140
344,50	0,140
345,00	0,139
345,50	0,139
346,00	0,139
346,50	0,139
347,00	0,139
347,50	0,139
348,00	0,139
348,50	0,139
349,00	0,139
349,50	0,139
350,00	0,139
350,50	0,139
351,00	0,138
351,50	0,138
352,00	0,138
352,50	0,138
353,00	0,138
353,50	0,138
354,00	0,138
354,50	0,138
355,00	0,138
355,50	0,138
356,00	0,138
356,50	0,138
357,00	0,138
357,50	0,138
358,00	0,138
358,50	0,138
359,00	0,138
359,50	0,138
360,00	0,138
360,50	0,138
361,00	0,138
361,50	0,138
362,00	0,138
362,50	0,138
363,00	0,138
363,50	0,138
364,00	0,138
364,50	0,138
365,00	0,138
365,50	0,138
366,00	0,138
366,50	0,138
367,00	0,138
367,50	0,138
368,00	0,138
368,50	0,138
369,00	0,138
369,50	0,138
370,00	0,138
370,50	0,138
371,00	0,138
371,50	0,138
372,00	0,138
372,50	0,138
373,00	0,138
373,50	0,138
374,00	0,138
374,50	0,138
375,00	0,138
375,50	0,138
376,00	0,138
376,50	0,138
377,00	0,138
377,50	0,138
378,00	0,138
378,50	0,138
379,00	0,138
379,50	0,138
380,00	0,138
380,50	0,138
381,00	0,138
381,50	0,138
382,00	0,138
382,50	0,138
383,00	0,138
383,50	0,138
384,00	0,138
384,50	0,138
385,00	0,138
385,50	0,138
386,00	0,137
386,50	0,137
387,00	0,137
387,50	0,137
388,00	0,137
388,50	0,137
389,00	0,137
389,50	0,137
390,00	0,137
390,50	0,137
391,00	0,137
391,50	0,137
392,00	0,137
392,50	0,137
393,00	0,137
393,50	0,137
394,00	0,137
394,50	0,137
395,00	0,137
395,50	0,137
396,00	0,137
396,50	0,137
397,00	0,137
397,50	0,137
398,00	0,137
398,50	0,137
399,00	0,137
399,50	0,137
400,00	0,137
400,50	0,137
401,00	0,137
401,50	0,137
402,00	0,136
402,50	0,136
403,00	0,136
403,50	0,136
404,00	0,136
404,50	0,136
405,00	0,136
405,50	0,136
406,00	0,136
406,50	0,136
407,00	0,136
407,50	0,136
408,00	0,136
408,50	0,136
409,00	0,136
409,50	0,136
410,00	0,136
410,50	0,136
411,00	0,135
411,50	0,135
412,00	0,135
412,50	0,135
413,00	0,135
413,50	0,135
414,00	0,135
414,50	0,135
415,00	0,135
415,50	0,135
416,00	0,135
416,50	0,135
417,00	0,135
417,50	0,135
418,00	0,135
418,50	0,135
419,00	0,135
419,50	0,134
420,00	0,134
420,50	0,134
421,00	0,134
421,50	0,134
422,00	0,134
422,50	0,134
423,00	0,134
423,50	0,134
424,00	0,134
424,50	0,133
425,00	0,133
425,50	0,133
426,00	0,133
426,50	0,133
427,00	0,133
427,50	0,133
428,00	0,133
428,50	0,133
429,00	0,133
429,50	0,133
430,00	0,133
430,50	0,133
431,00	0,133
431,50	0,133
432,00	0,133
432,50	0,133
433,00	0,133
433,50	0,133
434,00	0,133
434,50	0,133
435,00	0,133
435,50	0,133
436,00	0,132
436,50	0,132
437,00	0,132
437,50	0,132
438,00	0,132
438,50	0,132
439,00	0,132
439,50	0,132
440,00	0,132
440,50	0,132
441,00	0,132
441,50	0,132
442,00	0,131
442,50	0,131
443,00	0,131
443,50	0,131
444,00	0,131
444,50	0,131
445,00	0,131
445,50	0,131
446,00	0,131
446,50	0,131
447,00	0,131
447,50	0,131
448,00	0,130
448,50	0,130
449,00	0,130
449,50	0,130
450,00	0,130
450,50	0,130
451,00	0,130
451,50	0,130
452,00	0,130
452,50	0,130
453,00	0,130
453,50	0,130
454,00	0,130
454,50	0,130
455,00	0,129
455,50	0,129
456,00	0,129
456,50	0,129
457,00	0,129
457,50	0,129
458,00	0,129
458,50	0,129
459,00	0,129
459,50	0,129
460,00	0,129
460,50	0,128
461,00	0,128
461,50	0,128
462,00	0,128
462,50	0,128
463,00	0,128
463,50	0,128
464,00	0,128
464,50	0,128
465,00	0,128
465,50	0,128
466,00	0,128
466,50	0,127
467,00	0,127
467,50	0,127
468,00	0,127
468,50	0,127
469,00	0,127
469,50	0,127
470,00	0,127
470,50	0,126
471,00	0,126
471,50	0,126
472,00	0,126
472,50	0,126
473,00	0,126
473,50	0,126
474,00	0,126
474,50	0,125
475,00	0,125
475,50	0,125
476,00	0,125
476,50	0,125
477,00	0,125
477,50	0,125
478,00	0,125
478,50	0,125
479,00	0,125
479,50	0,125
480,00	0,125
480,50	0,125
481,00	0,125
481,50	0,124
482,00	0,125
482,50	0,124
483,00	0,125
483,50	0,125
484,00	0,125
484,50	0,125
485,00	0,125
485,50	0,125
486,00	0,125
486,50	0,125
487,00	0,125
487,50	0,125
488,00	0,125
488,50	0,125
489,00	0,125
489,50	0,125
490,00	0,126
490,50	0,126
491,00	0,126
491,50	0,126
492,00	0,126
492,50	0,126
493,00	0,127
493,50	0,127
494,00	0,127
494,50	0,127
495,00	0,127
495,50	0,128
496,00	0,128
496,50	0,128
497,00	0,129
497,50	0,129
498,00	0,129
498,50	0,130
499,00	0,130
499,50	0,130
500,00	0,131
500,50	0,131
501,00	0,132
501,50	0,132
502,00	0,132
502,50	0,133
503,00	0,133
503,50	0,134
504,00	0,134
504,50	0,135
505,00	0,135
505,50	0,136
506,00	0,136
506,50	0,136
507,00	0,137
507,50	0,137
508,00	0,138
508,50	0,138
509,00	0,139
509,50	0,139
510,00	0,140
510,50	0,140
511,00	0,141
511,50	0,141
512,00	0,142
512,50	0,142
513,00	0,143
513,50	0,143
514,00	0,143
514,50	0,144
515,00	0,144
515,50	0,145
516,00	0,145
516,50	0,146
517,00	0,146
517,50	0,147
518,00	0,147
518,50	0,148
519,00	0,148
519,50	0,149
520,00	0,149
520,50	0,150
521,00	0,150
521,50	0,151
522,00	0,151
522,50	0,151
523,00	0,152
523,50	0,152
524,00	0,153
524,50	0,153
525,00	0,153
525,50	0,154
526,00	0,154
526,50	0,154
527,00	0,155
527,50	0,155
528,00	0,155
528,50	0,156
529,00	0,156
529,50	0,156
530,00	0,157
530,50	0,157
531,00	0,157
531,50	0,158
532,00	0,158
532,50	0,158
533,00	0,159
533,50	0,159
534,00	0,159
534,50	0,160
535,00	0,160
535,50	0,160
536,00	0,160
536,50	0,161
537,00	0,161
537,50	0,161
538,00	0,162
538,50	0,162
539,00	0,162
539,50	0,162
540,00	0,162
540,50	0,163
541,00	0,163
541,50	0,163
542,00	0,163
542,50	0,164
543,00	0,164
543,50	0,164
544,00	0,164
544,50	0,164
545,00	0,165
545,50	0,165
546,00	0,165
546,50	0,165
547,00	0,166
547,50	0,166
548,00	0,166
548,50	0,166
549,00	0,166
549,50	0,167
550,00	0,167
550,50	0,167
551,00	0,167
551,50	0,167
552,00	0,167
552,50	0,168
553,00	0,168
553,50	0,168
554,00	0,168
554,50	0,168
555,00	0,168
555,50	0,169
556,00	0,169
556,50	0,169
557,00	0,169
557,50	0,169
558,00	0,169
558,50	0,170
559,00	0,170
559,50	0,170
560,00	0,170
560,50	0,170
561,00	0,170
561,50	0,171
562,00	0,171
562,50	0,171
563,00	0,171
563,50	0,171
564,00	0,171
564,50	0,172
565,00	0,172
565,50	0,172
566,00	0,172
566,50	0,172
567,00	0,172
567,50	0,172
568,00	0,172
568,50	0,172
569,00	0,173
569,50	0,173
570,00	0,173
570,50	0,173
571,00	0,173
571,50	0,173
572,00	0,173
572,50	0,174
573,00	0,174
573,50	0,174
574,00	0,174
574,50	0,174
575,00	0,174
575,50	0,174
576,00	0,174
576,50	0,174
577,00	0,174
577,50	0,175
578,00	0,175
578,50	0,175
579,00	0,175
579,50	0,175
580,00	0,175
580,50	0,175
581,00	0,175
581,50	0,175
582,00	0,175
582,50	0,175
583,00	0,176
583,50	0,176
584,00	0,176
584,50	0,176
585,00	0,176
585,50	0,176
586,00	0,176
586,50	0,176
587,00	0,176
587,50	0,176
588,00	0,176
588,50	0,176
589,00	0,176
589,50	0,176
590,00	0,177
590,50	0,177
591,00	0,177
591,50	0,177
592,00	0,177
592,50	0,177
593,00	0,177
593,50	0,177
594,00	0,177
594,50	0,177
595,00	0,177
595,50	0,177
596,00	0,177
596,50	0,177
597,00	0,177
597,50	0,177
598,00	0,177
598,50	0,177
599,00	0,177
599,50	0,177
600,00	0,177
600,50	0,177
601,00	0,177
601,50	0,177
602,00	0,177
602,50	0,177
603,00	0,177
603,50	0,177
604,00	0,177
604,50	0,178
605,00	0,178
605,50	0,178
606,00	0,178
606,50	0,178
607,00	0,178
607,50	0,178
608,00	0,178
608,50	0,178
609,00	0,178
609,50	0,178
610,00	0,178
610,50	0,178
611,00	0,177
611,50	0,177
612,00	0,177
612,50	0,177
613,00	0,177
613,50	0,177
614,00	0,177
614,50	0,177
615,00	0,177
615,50	0,177
616,00	0,177
616,50	0,177
617,00	0,177
617,50	0,177
618,00	0,177
618,50	0,177
619,00	0,177
619,50	0,177
620,00	0,177
620,50	0,177
621,00	0,177
621,50	0,177
622,00	0,177
622,50	0,177
623,00	0,177
623,50	0,177
624,00	0,177
624,50	0,177
625,00	0,177
625,50	0,177
626,00	0,177
626,50	0,177
627,00	0,176
627,50	0,176
628,00	0,176
628,50	0,176
629,00	0,176
629,50	0,176
630,00	0,176
630,50	0,176
631,00	0,176
631,50	0,176
632,00	0,176
632,50	0,176
633,00	0,176
633,50	0,176
634,00	0,176
634,50	0,175
635,00	0,175
635,50	0,175
636,00	0,175
636,50	0,175
637,00	0,175
637,50	0,175
638,00	0,175
638,50	0,175
639,00	0,175
639,50	0,174
640,00	0,174
640,50	0,174
641,00	0,174
641,50	0,174
642,00	0,174
642,50	0,174
643,00	0,174
643,50	0,174
644,00	0,174
644,50	0,173
645,00	0,173
645,50	0,173
646,00	0,173
646,50	0,173
647,00	0,173
647,50	0,173
648,00	0,173
648,50	0,173
649,00	0,173
649,50	0,172
650,00	0,172
650,50	0,172
651,00	0,172
651,50	0,172
652,00	0,172
652,50	0,172
653,00	0,172
653,50	0,171
654,00	0,171
654,50	0,171
655,00	0,171
655,50	0,171
656,00	0,171
656,50	0,171
657,00	0,171
657,50	0,171
658,00	0,171
658,50	0,170
659,00	0,170
659,50	0,170
660,00	0,170
660,50	0,170
661,00	0,170
661,50	0,170
662,00	0,170
662,50	0,170
663,00	0,169
663,50	0,169
664,00	0,169
664,50	0,169
665,00	0,168
665,50	0,168
666,00	0,168
666,50	0,168
667,00	0,168
667,50	0,167
668,00	0,167
668,50	0,167
669,00	0,167
669,50	0,167
670,00	0,167
670,50	0,166
671,00	0,166
671,50	0,166
672,00	0,166
672,50	0,166
673,00	0,166
673,50	0,166
674,00	0,165
674,50	0,165
675,00	0,165
675,50	0,165
676,00	0,165
676,50	0,165
677,00	0,164
677,50	0,164
678,00	0,164
678,50	0,164
679,00	0,164
679,50	0,164
680,00	0,164
680,50	0,164
681,00	0,163
681,50	0,163
682,00	0,163
682,50	0,163
683,00	0,163
683,50	0,163
684,00	0,163
684,50	0,162
685,00	0,162
685,50	0,162
686,00	0,162
686,50	0,162
687,00	0,161
687,50	0,161
688,00	0,161
688,50	0,161
689,00	0,161
689,50	0,161
690,00	0,160
690,50	0,160
691,00	0,160
691,50	0,160
692,00	0,160
692,50	0,160
693,00	0,160
693,50	0,159
694,00	0,159
694,50	0,159
695,00	0,159
695,50	0,159
696,00	0,159
696,50	0,159
697,00	0,158
697,50	0,158
698,00	0,158
698,50	0,158
699,00	0,158
699,50	0,158
700,00	0,158
700,50	0,157
701,00	0,157
701,50	0,157
702,00	0,157
702,50	0,157
703,00	0,157
703,50	0,157
704,00	0,156
704,50	0,156
705,00	0,156
705,50	0,156
706,00	0,156
706,50	0,156
707,00	0,155
707,50	0,155
708,00	0,155
708,50	0,155
709,00	0,155
709,50	0,155
710,00	0,154
710,50	0,154
711,00	0,154
711,50	0,154
712,00	0,154
712,50	0,154
713,00	0,154
713,50	0,154
714,00	0,153
714,50	0,153
715,00	0,153
715,50	0,153
716,00	0,153
716,50	0,153
717,00	0,152
717,50	0,152
718,00	0,152
718,50	0,152
719,00	0,152
719,50	0,152
720,00	0,152
720,50	0,151
721,00	0,151
721,50	0,151
722,00	0,151
722,50	0,151
723,00	0,151
723,50	0,151
724,00	0,151
724,50	0,150
725,00	0,150
725,50	0,150
726,00	0,150
726,50	0,150
727,00	0,150
727,50	0,150
728,00	0,150
728,50	0,149
729,00	0,149
729,50	0,149
730,00	0,149
730,50	0,149
731,00	0,149
731,50	0,149
732,00	0,148
732,50	0,148
733,00	0,148
733,50	0,148
734,00	0,148
734,50	0,148
735,00	0,148
735,50	0,148
736,00	0,148
736,50	0,147
737,00	0,147
737,50	0,147
738,00	0,147
738,50	0,147
739,00	0,147
739,50	0,147
740,00	0,146
740,50	0,146
741,00	0,146
741,50	0,146
742,00	0,146
742,50	0,146
743,00	0,145
743,50	0,145
744,00	0,145
744,50	0,145
745,00	0,145
745,50	0,145
746,00	0,145
746,50	0,145
747,00	0,145
747,50	0,144
748,00	0,144
748,50	0,144
749,00	0,144
749,50	0,144
750,00	0,144
750,50	0,143
751,00	0,143
751,50	0,143
752,00	0,143
752,50	0,143
753,00	0,143
753,50	0,143
754,00	0,143
754,50	0,142
755,00	0,142
755,50	0,142
756,00	0,142
756,50	0,142
757,00	0,142
757,50	0,142
758,00	0,142
758,50	0,141
759,00	0,141
759,50	0,141
760,00	0,141
760,50	0,141
761,00	0,141
761,50	0,141
762,00	0,141
762,50	0,141
763,00	0,140
763,50	0,140
764,00	0,140
764,50	0,140
765,00	0,140
765,50	0,140
766,00	0,140
766,50	0,139
767,00	0,139
767,50	0,139
768,00	0,139
768,50	0,139
769,00	0,139
769,50	0,139
770,00	0,139
770,50	0,139
771,00	0,139
771,50	0,138
772,00	0,138
772,50	0,138
773,00	0,138
773,50	0,138
774,00	0,138
774,50	0,138
775,00	0,138
775,50	0,138
776,00	0,137
776,50	0,137
777,00	0,137
777,50	0,137
778,00	0,137
778,50	0,137
779,00	0,137
779,50	0,136
780,00	0,136
780,50	0,136
781,00	0,136
781,50	0,136
782,00	0,136
782,50	0,136
783,00	0,136
783,50	0,136
784,00	0,135
784,50	0,135
785,00	0,135
785,50	0,135
786,00	0,135
786,50	0,135
787,00	0,135
787,50	0,135
788,00	0,135
788,50	0,135
789,00	0,135
789,50	0,134
790,00	0,134
790,50	0,134
791,00	0,134
791,50	0,134
792,00	0,134
792,50	0,134
793,00	0,134
793,50	0,134
794,00	0,133
794,50	0,133
795,00	0,133
795,50	0,133
796,00	0,133
796,50	0,133
797,00	0,133
797,50	0,133
798,00	0,133
798,50	0,133
799,00	0,133
799,50	0,133
800,00	0,133