File: Espectro Uv-Vis/citrato/1.20/1.19.txt
"1.2ml - Dataset 231347"
"Wavelength nm."	"Abs."
200,00	2,514
200,50	2,514
201,00	2,514
201,50	2,514
202,00	2,514
202,50	2,514
203,00	2,514
203,50	2,514
204,00	2,514
204,50	2,772
205,00	3,522
205,50	3,926
206,00	4,007
206,50	3,233
207,00	3,618
207,50	3,924
208,00	3,285
208,50	3,157
209,00	2,688
209,50	2,636
210,00	2,236
210,50	1,930
211,00	1,310
211,50	1,233
212,00	1,277
212,50	1,453
213,00	1,820
213,50	1,619
214,00	0,915
214,50	0,351
215,00	0,651
215,50	1,030
216,00	0,911
216,50	1,541
217,00	1,788
217,50	2,159
218,00	2,914
218,50	4,024
219,00	4,054
219,50	4,693
220,00	4,905
220,50	4,813
221,00	4,379
221,50	3,694
222,00	2,894
222,50	2,044
223,00	1,905
223,50	1,855
224,00	1,088
224,50	0,854
225,00	0,402
225,50	0,385
226,00	0,803
226,50	1,310
227,00	1,656
227,50	2,467
228,00	2,633
228,50	2,313
229,00	2,526
229,50	2,225
230,00	2,395
230,50	2,355
231,00	2,778
231,50	2,720
232,00	1,962
232,50	1,385
233,00	0,872
233,50	1,512
234,00	1,702
234,50	2,693
235,00	2,982
235,50	3,093
236,00	2,907
236,50	2,185
237,00	2,220
237,50	2,242
238,00	2,828
238,50	2,867
239,00	2,225
239,50	2,117
240,00	1,684
240,50	1,605
241,00	1,336
241,50	1,913
242,00	1,709
242,50	2,202
243,00	2,043
243,50	1,811
244,00	1,372
244,50	0,839
245,00	0,876
245,50	1,037
246,00	0,815
246,50	0,443
247,00	-0,021
247,50	-0,221
248,00	-0,182
248,50	-0,700
249,00	-0,446
249,50	-0,049
250,00	0,506
250,50	1,123
251,00	1,525
251,50	1,828
252,00	2,005
252,50	2,080
253,00	2,116
253,50	1,887
254,00	1,606
254,50	0,784
255,00	0,529
255,50	0,119
256,00	0,300
256,50	-0,043
257,00	0,187
257,50	0,028
258,00	0,517
258,50	0,625
259,00	0,636
259,50	0,567
260,00	0,495
260,50	0,475
261,00	-0,036
261,50	0,024
262,00	-0,384
262,50	-0,167
263,00	0,599
263,50	0,839
264,00	0,707
264,50	1,136
265,00	1,477
265,50	1,788
266,00	1,946
266,50	1,619
267,00	1,777
267,50	1,833
268,00	1,882
268,50	1,697
269,00	1,263
269,50	1,387
270,00	1,073
270,50	1,192
271,00	0,828
271,50	0,080
272,00	-0,049
272,50	0,383
273,00	0,448
273,50	0,411
274,00	0,301
274,50	0,150
275,00	0,670
275,50	0,861
276,00	0,946
276,50	0,852
277,00	0,810
277,50	0,695
278,00	0,551
278,50	0,191
279,00	-0,057
279,50	-0,359
280,00	0,009
280,50	-0,005
281,00	0,038
281,50	0,040
282,00	0,058
282,50	0,118
283,00	0,177
283,50	0,193
284,00	0,175
284,50	0,214
285,00	0,272
285,50	0,253
286,00	0,245
286,50	0,246
287,00	-0,111
287,50	-0,216
288,00	0,311
288,50	0,753
289,00	1,104
289,50	1,339
290,00	1,488
290,50	1,594
291,00	1,669
291,50	1,690
292,00	1,626
292,50	1,501
293,00	1,296
293,50	1,033
294,00	0,695
294,50	0,286
295,00	-0,184
295,50	-0,054
296,00	0,345
296,50	0,338
297,00	0,295
297,50	0,238
298,00	0,213
298,50	0,227
299,00	0,258
299,50	0,270
300,00	0,268
300,50	0,275
301,00	0,271
301,50	0,275
302,00	0,277
302,50	0,278
303,00	0,273
303,50	0,269
304,00	0,261
304,50	0,258
305,00	0,260
305,50	0,258
306,00	0,261
306,50	0,264
307,00	0,264
307,50	0,261
308,00	0,259
308,50	0,255
309,00	0,252
309,50	0,249
310,00	0,250
310,50	0,248
311,00	0,243
311,50	0,241
312,00	0,233
312,50	0,240
313,00	0,237
313,50	0,234
314,00	0,236
314,50	0,239
315,00	0,240
315,50	0,240
316,00	0,239
316,50	0,240
317,00	0,239
317,50	0,240
318,00	0,240
318,50	0,244
319,00	0,242
319,50	0,240
320,00	0,239
320,50	0,243
321,00	0,237
321,50	0,237
322,00	0,237
322,50	0,237
323,00	0,233
323,50	0,228
324,00	0,226
324,50	0,224
325,00	0,226
325,50	0,227
326,00	0,225
326,50	0,226
327,00	0,224
327,50	0,225
328,00	0,224
328,50	0,223
329,00	0,220
329,50	0,220
330,00	0,218
330,50	0,217
331,00	0,216
331,50	0,216
332,00	0,217
332,50	0,217
333,00	0,220
333,50	0,221
334,00	0,221
334,50	0,223
335,00	0,222
335,50	0,223
336,00	0,221
336,50	0,220
337,00	0,217
337,50	0,214
338,00	0,213
338,50	0,214
339,00	0,211
339,50	0,212
340,00	0,211
340,50	0,212
341,00	0,214
341,50	0,215
342,00	0,216
342,50	0,217
343,00	0,217
343,50	0,218
344,00	0,217
344,50	0,217
345,00	0,216
345,50	0,216
346,00	0,217
346,50	0,218
347,00	0,215
347,50	0,215
348,00	0,215
348,50	0,214
349,00	0,214
349,50	0,214
350,00	0,212
350,50	0,212
351,00	0,212
351,50	0,210
352,00	0,209
352,50	0,209
353,00	0,210
353,50	0,211
354,00	0,209
354,50	0,207
355,00	0,206
355,50	0,207
356,00	0,209
356,50	0,209
357,00	0,210
357,50	0,210
358,00	0,210
358,50	0,212
359,00	0,213
359,50	0,211
360,00	0,212
360,50	0,212
361,00	0,213
361,50	0,210
362,00	0,209
362,50	0,208
363,00	0,207
363,50	0,206
364,00	0,204
364,50	0,202
365,00	0,200
365,50	0,199
366,00	0,199
366,50	0,200
367,00	0,200
367,50	0,200
368,00	0,200
368,50	0,201
369,00	0,200
369,50	0,200
370,00	0,201
370,50	0,201
371,00	0,201
371,50	0,202
372,00	0,201
372,50	0,201
373,00	0,202
373,50	0,203
374,00	0,204
374,50	0,204
375,00	0,204
375,50	0,203
376,00	0,203
376,50	0,203
377,00	0,202
377,50	0,202
378,00	0,202
378,50	0,201
379,00	0,200
379,50	0,199
380,00	0,198
380,50	0,198
381,00	0,198
381,50	0,197
382,00	0,197
382,50	0,197
383,00	0,196
383,50	0,195
384,00	0,195
384,50	0,195
385,00	0,196
385,50	0,195
386,00	0,194
386,50	0,193
387,00	0,192
387,50	0,192
388,00	0,192
388,50	0,191
389,00	0,191
389,50	0,192
390,00	0,193
390,50	0,193
391,00	0,194
391,50	0,193
392,00	0,193
392,50	0,193
393,00	0,192
393,50	0,192
394,00	0,191
394,50	0,191
395,00	0,191
395,50	0,191
396,00	0,191
396,50	0,190
397,00	0,191
397,50	0,191
398,00	0,191
398,50	0,190
399,00	0,189
399,50	0,189
400,00	0,189
400,50	0,189
401,00	0,189
401,50	0,188
402,00	0,188
402,50	0,188
403,00	0,188
403,50	0,188
404,00	0,188
404,50	0,187
405,00	0,186
405,50	0,185
406,00	0,186
406,50	0,186
407,00	0,186
407,50	0,187
408,00	0,188
408,50	0,187
409,00	0,187
409,50	0,187
410,00	0,186
410,50	0,185
411,00	0,184
411,50	0,185
412,00	0,184
412,50	0,183
413,00	0,182
413,50	0,181
414,00	0,182
414,50	0,182
415,00	0,182
415,50	0,183
416,00	0,184
416,50	0,184
417,00	0,185
417,50	0,185
418,00	0,185
418,50	0,184
419,00	0,185
419,50	0,185
420,00	0,184
420,50	0,184
421,00	0,184
421,50	0,184
422,00	0,184
422,50	0,183
423,00	0,184
423,50	0,184
424,00	0,185
424,50	0,184
425,00	0,183
425,50	0,183
426,00	0,184
426,50	0,182
427,00	0,182
427,50	0,182
428,00	0,181
428,50	0,180
429,00	0,180
429,50	0,181
430,00	0,180
430,50	0,180
431,00	0,180
431,50	0,180
432,00	0,180
432,50	0,180
433,00	0,181
433,50	0,181
434,00	0,181
434,50	0,181
435,00	0,182
435,50	0,182
436,00	0,181
436,50	0,182
437,00	0,182
437,50	0,183
438,00	0,182
438,50	0,183
439,00	0,182
439,50	0,183
440,00	0,182
440,50	0,183
441,00	0,183
441,50	0,183
442,00	0,182
442,50	0,182
443,00	0,182
443,50	0,181
444,00	0,180
444,50	0,181
445,00	0,182
445,50	0,182
446,00	0,182
446,50	0,182
447,00	0,183
447,50	0,184
448,00	0,184
448,50	0,185
449,00	0,185
449,50	0,185
450,00	0,185
450,50	0,186
451,00	0,185
451,50	0,186
452,00	0,185
452,50	0,186
453,00	0,186
453,50	0,185
454,00	0,185
454,50	0,186
455,00	0,186
455,50	0,186
456,00	0,186
456,50	0,186
457,00	0,186
457,50	0,186
458,00	0,187
458,50	0,186
459,00	0,186
459,50	0,187
460,00	0,187
460,50	0,187
461,00	0,188
461,50	0,188
462,00	0,189
462,50	0,189
463,00	0,190
463,50	0,190
464,00	0,190
464,50	0,191
465,00	0,191
465,50	0,192
466,00	0,192
466,50	0,192
467,00	0,192
467,50	0,193
468,00	0,194
468,50	0,194
469,00	0,195
469,50	0,197
470,00	0,198
470,50	0,198
471,00	0,199
471,50	0,200
472,00	0,200
472,50	0,201
473,00	0,202
473,50	0,203
474,00	0,204
474,50	0,204
475,00	0,205
475,50	0,205
476,00	0,206
476,50	0,206
477,00	0,207
477,50	0,208
478,00	0,209
478,50	0,210
479,00	0,211
479,50	0,211
480,00	0,212
480,50	0,213
481,00	0,214
481,50	0,215
482,00	0,216
482,50	0,217
483,00	0,218
483,50	0,219
484,00	0,220
484,50	0,221
485,00	0,223
485,50	0,224
486,00	0,226
486,50	0,227
487,00	0,228
487,50	0,230
488,00	0,231
488,50	0,233
489,00	0,234
489,50	0,235
490,00	0,235
490,50	0,237
491,00	0,238
491,50	0,239
492,00	0,240
492,50	0,242
493,00	0,244
493,50	0,245
494,00	0,248
494,50	0,250
495,00	0,252
495,50	0,254
496,00	0,257
496,50	0,259
497,00	0,261
497,50	0,263
498,00	0,264
498,50	0,266
499,00	0,268
499,50	0,270
500,00	0,271
500,50	0,272
501,00	0,274
501,50	0,276
502,00	0,277
502,50	0,279
503,00	0,280
503,50	0,283
504,00	0,285
504,50	0,287
505,00	0,289
505,50	0,290
506,00	0,292
506,50	0,293
507,00	0,296
507,50	0,297
508,00	0,299
508,50	0,301
509,00	0,303
509,50	0,304
510,00	0,305
510,50	0,307
511,00	0,309
511,50	0,310
512,00	0,310
512,50	0,311
513,00	0,311
513,50	0,311
514,00	0,312
514,50	0,312
515,00	0,313
515,50	0,314
516,00	0,314
516,50	0,315
517,00	0,315
517,50	0,315
518,00	0,315
518,50	0,315
519,00	0,315
519,50	0,315
520,00	0,315
520,50	0,315
521,00	0,314
521,50	0,314
522,00	0,314
522,50	0,313
523,00	0,311
523,50	0,310
524,00	0,309
524,50	0,308
525,00	0,307
525,50	0,305
526,00	0,303
526,50	0,301
527,00	0,300
527,50	0,299
528,00	0,298
528,50	0,296
529,00	0,296
529,50	0,295
530,00	0,294
530,50	0,292
531,00	0,291
531,50	0,289
532,00	0,288
532,50	0,286
533,00	0,283
533,50	0,281
534,00	0,278
534,50	0,275
535,00	0,273
535,50	0,270
536,00	0,268
536,50	0,265
537,00	0,264
537,50	0,261
538,00	0,259
538,50	0,257
539,00	0,254
539,50	0,252
540,00	0,249
540,50	0,246
541,00	0,242
541,50	0,240
542,00	0,236
542,50	0,233
543,00	0,230
543,50	0,227
544,00	0,224
544,50	0,221
545,00	0,219
545,50	0,215
546,00	0,213
546,50	0,211
547,00	0,209
547,50	0,206
548,00	0,203
548,50	0,199
549,00	0,196
549,50	0,193
550,00	0,191
550,50	0,188
551,00	0,186
551,50	0,183
552,00	0,181
552,50	0,179
553,00	0,176
553,50	0,174
554,00	0,172
554,50	0,170
555,00	0,167
555,50	0,164
556,00	0,161
556,50	0,158
557,00	0,157
557,50	0,155
558,00	0,153
558,50	0,151
559,00	0,149
559,50	0,147
560,00	0,145
560,50	0,143
561,00	0,142
561,50	0,139
562,00	0,138
562,50	0,135
563,00	0,132
563,50	0,131
564,00	0,129
564,50	0,127
565,00	0,125
565,50	0,123
566,00	0,121
566,50	0,119
567,00	0,117
567,50	0,116
568,00	0,114
568,50	0,113
569,00	0,111
569,50	0,109
570,00	0,108
570,50	0,106
571,00	0,104
571,50	0,102
572,00	0,101
572,50	0,099
573,00	0,098
573,50	0,097
574,00	0,096
574,50	0,094
575,00	0,093
575,50	0,092
576,00	0,091
576,50	0,089
577,00	0,088
577,50	0,087
578,00	0,085
578,50	0,084
579,00	0,083
579,50	0,082
580,00	0,080
580,50	0,080
581,00	0,080
581,50	0,078
582,00	0,077
582,50	0,076
583,00	0,075
583,50	0,075
584,00	0,074
584,50	0,073
585,00	0,072
585,50	0,071
586,00	0,070
586,50	0,069
587,00	0,068
587,50	0,067
588,00	0,066
588,50	0,065
589,00	0,064
589,50	0,063
590,00	0,062
590,50	0,061
591,00	0,061
591,50	0,060
592,00	0,059
592,50	0,059
593,00	0,057
593,50	0,057
594,00	0,056
594,50	0,056
595,00	0,054
595,50	0,053
596,00	0,052
596,50	0,052
597,00	0,051
597,50	0,051
598,00	0,050
598,50	0,049
599,00	0,048
599,50	0,048
600,00	0,047
600,50	0,047
601,00	0,046
601,50	0,045
602,00	0,045
602,50	0,045
603,00	0,044
603,50	0,043
604,00	0,043
604,50	0,042
605,00	0,041
605,50	0,041
606,00	0,040
606,50	0,040
607,00	0,039
607,50	0,039
608,00	0,038
608,50	0,038
609,00	0,038
609,50	0,038
610,00	0,038
610,50	0,038
611,00	0,038
611,50	0,037
612,00	0,037
612,50	0,037
613,00	0,035
613,50	0,035
614,00	0,034
614,50	0,033
615,00	0,033
615,50	0,031
616,00	0,031
616,50	0,030
617,00	0,030
617,50	0,030
618,00	0,030
618,50	0,030
619,00	0,030
619,50	0,030
620,00	0,029
620,50	0,029
621,00	0,029
621,50	0,028
622,00	0,028
622,50	0,029
623,00	0,028
623,50	0,027
624,00	0,027
624,50	0,026
625,00	0,027
625,50	0,026
626,00	0,026
626,50	0,026
627,00	0,027
627,50	0,026
628,00	0,026
628,50	0,026
629,00	0,027
629,50	0,026
630,00	0,026
630,50	0,026
631,00	0,025
631,50	0,024
632,00	0,025
632,50	0,024
633,00	0,024
633,50	0,023
634,00	0,023
634,50	0,023
635,00	0,022
635,50	0,022
636,00	0,021
636,50	0,021
637,00	0,021
637,50	0,020
638,00	0,019
638,50	0,018
639,00	0,018
639,50	0,018
640,00	0,018
640,50	0,019
641,00	0,019
641,50	0,019
642,00	0,020
642,50	0,021
643,00	0,021
643,50	0,021
644,00	0,021
644,50	0,021
645,00	0,020
645,50	0,019
646,00	0,018
646,50	0,017
647,00	0,016
647,50	0,015
648,00	0,015
648,50	0,015
649,00	0,014
649,50	0,014
650,00	0,015
650,50	0,014
651,00	0,014
651,50	0,014
652,00	0,014
652,50	0,013
653,00	0,013
653,50	0,013
654,00	0,013
654,50	0,014
655,00	0,014
655,50	0,015
656,00	0,015
656,50	0,015
657,00	0,015
657,50	0,015
658,00	0,015
658,50	0,014
659,00	0,014
659,50	0,014
660,00	0,013
660,50	0,013
661,00	0,012
661,50	0,013
662,00	0,012
662,50	0,012
663,00	0,012
663,50	0,012
664,00	0,012
664,50	0,012
665,00	0,012
665,50	0,013
666,00	0,012
666,50	0,013
667,00	0,013
667,50	0,012
668,00	0,012
668,50	0,012
669,00	0,011
669,50	0,011
670,00	0,010
670,50	0,010
671,00	0,009
671,50	0,009
672,00	0,009
672,50	0,009
673,00	0,008
673,50	0,008
674,00	0,009
674,50	0,008
675,00	0,008
675,50	0,008
676,00	0,009
676,50	0,009
677,00	0,009
677,50	0,009
678,00	0,009
678,50	0,009
679,00	0,009
679,50	0,009
680,00	0,009
680,50	0,009
681,00	0,009
681,50	0,011
682,00	0,011
682,50	0,011
683,00	0,010
683,50	0,009
684,00	0,009
684,50	0,008
685,00	0,007
685,50	0,006
686,00	0,006
686,50	0,006
687,00	0,007
687,50	0,006
688,00	0,006
688,50	0,007
689,00	0,008
689,50	0,009
690,00	0,009
690,50	0,008
691,00	0,007
691,50	0,008
692,00	0,006
692,50	0,006
693,00	0,006
693,50	0,006
694,00	0,006
694,50	0,006
695,00	0,007
695,50	0,006
696,00	0,007
696,50	0,006
697,00	0,007
697,50	0,007
698,00	0,006
698,50	0,007
699,00	0,007
699,50	0,007
700,00	0,007
700,50	0,007
701,00	0,006
701,50	0,005
702,00	0,004
702,50	0,004
703,00	0,004
703,50	0,005
704,00	0,004
704,50	0,004
705,00	0,004
705,50	0,005
706,00	0,006
706,50	0,006
707,00	0,007
707,50	0,006
708,00	0,007
708,50	0,006
709,00	0,005
709,50	0,005
710,00	0,004
710,50	0,004
711,00	0,003
711,50	0,003
712,00	0,002
712,50	0,003
713,00	0,003
713,50	0,004
714,00	0,005
714,50	0,005
715,00	0,006
715,50	0,005
716,00	0,006
716,50	0,004
717,00	0,004
717,50	0,003
718,00	0,002
718,50	0,003
719,00	0,002
719,50	0,003
720,00	0,004
720,50	0,004
721,00	0,004
721,50	0,005
722,00	0,007
722,50	0,007
723,00	0,007
723,50	0,007
724,00	0,006
724,50	0,005
725,00	0,004
725,50	0,003
726,00	0,003
726,50	0,004
727,00	0,004
727,50	0,004
728,00	0,005
728,50	0,005
729,00	0,006
729,50	0,006
730,00	0,006
730,50	0,005
731,00	0,005
731,50	0,004
732,00	0,004
732,50	0,004
733,00	0,003
733,50	0,003
734,00	0,002
734,50	0,002
735,00	0,002
735,50	0,002
736,00	0,004
736,50	0,003
737,00	0,003
737,50	0,002
738,00	0,001
738,50	0,002
739,00	0,002
739,50	0,001
740,00	0,002
740,50	0,002
741,00	0,002
741,50	0,002
742,00	0,003
742,50	0,003
743,00	0,003
743,50	0,002
744,00	0,002
744,50	0,002
745,00	0,001
745,50	0,002
746,00	0,003
746,50	0,004
747,00	0,004
747,50	0,004
748,00	0,004
748,50	0,003
749,00	0,003
749,50	0,003
750,00	0,004
750,50	0,003
751,00	0,003
751,50	0,002
752,00	0,001
752,50	0,002
753,00	0,003
753,50	0,004
754,00	0,005
754,50	0,005
755,00	0,004
755,50	0,003
756,00	0,004
756,50	0,004
757,00	0,004
757,50	0,004
758,00	0,004
758,50	0,004
759,00	0,004
759,50	0,002
760,00	0,002
760,50	0,001
761,00	0,000
761,50	-0,000
762,00	-0,000
762,50	-0,002
763,00	-0,003
763,50	-0,002
764,00	-0,002
764,50	-0,001
765,00	0,000
765,50	0,001
766,00	0,001
766,50	0,001
767,00	0,000
767,50	-0,000
768,00	0,000
768,50	-0,000
769,00	0,000
769,50	0,002
770,00	0,002
770,50	0,002
771,00	0,001
771,50	0,002
772,00	0,002
772,50	0,003
773,00	0,004
773,50	0,003
774,00	0,001
774,50	0,000
775,00	-0,000
775,50	0,001
776,00	0,001
776,50	-0,001
777,00	0,000
777,50	0,000
778,00	0,000
778,50	-0,000
779,00	-0,001
779,50	-0,001
780,00	-0,001
780,50	-0,001
781,00	-0,002
781,50	-0,002
782,00	-0,002
782,50	-0,001
783,00	0,000
783,50	0,002
784,00	0,003
784,50	0,003
785,00	0,004
785,50	0,004
786,00	0,004
786,50	0,004
787,00	0,004
787,50	0,003
788,00	0,003
788,50	0,002
789,00	0,002
789,50	0,001
790,00	0,000
790,50	-0,000
791,00	-0,001
791,50	-0,002
792,00	-0,002
792,50	-0,003
793,00	-0,004
793,50	-0,004
794,00	-0,003
794,50	-0,002
795,00	-0,001
795,50	-0,001
796,00	0,000
796,50	0,000
797,00	0,000
797,50	0,000
798,00	0,000
798,50	0,000
799,00	0,000
799,50	0,000
800,00	0,000