File: Espectro Uv-Vis/citrato/1.20/1.20.txt
"1.2ml smoothing - Dataset 215511"
"Wavelength nm."	"Abs."
200,00	1,910
200,50	1,910
201,00	1,910
201,50	1,910
202,00	1,910
202,50	1,910
203,00	1,910
203,50	1,910
204,00	1,910
204,50	1,553
205,00	0,600
205,50	0,164
206,00	0,371
206,50	0,710
207,00	1,284
207,50	1,069
208,00	0,694
208,50	0,849
209,00	0,538
209,50	0,368
210,00	1,032
210,50	1,794
211,00	1,984
211,50	2,668
212,00	2,680
212,50	3,118
213,00	3,350
213,50	4,001
214,00	4,086
214,50	3,942
215,00	3,452
215,50	2,922
216,00	1,990
216,50	1,479
217,00	0,460
217,50	-0,305
218,00	-0,241
218,50	-0,354
219,00	-0,363
219,50	0,273
220,00	0,441
220,50	0,811
221,00	1,040
221,50	1,736
222,00	2,315
222,50	2,790
223,00	2,976
223,50	3,013
224,00	2,694
224,50	2,317
225,00	1,515
225,50	0,892
226,00	1,393
226,50	1,308
227,00	1,747
227,50	1,686
228,00	1,443
228,50	1,014
229,00	1,124
229,50	1,463
230,00	1,433
230,50	1,245
231,00	1,023
231,50	0,313
232,00	0,353
232,50	-0,282
233,00	-0,210
233,50	0,339
234,00	0,665
234,50	0,781
235,00	1,453
235,50	1,931
236,00	1,902
236,50	2,427
237,00	2,672
237,50	2,923
238,00	2,922
238,50	2,742
239,00	2,505
239,50	2,017
240,00	2,000
240,50	1,419
241,00	1,406
241,50	0,815
242,00	0,147
242,50	0,165
243,00	0,275
243,50	-0,003
244,00	-0,309
244,50	-0,381
245,00	-0,222
245,50	0,087
246,00	0,241
246,50	0,498
247,00	0,663
247,50	0,773
248,00	0,819
248,50	0,827
249,00	0,454
249,50	0,761
250,00	0,971
250,50	0,696
251,00	1,004
251,50	1,043
252,00	0,917
252,50	0,781
253,00	1,302
253,50	1,401
254,00	1,401
254,50	1,414
255,00	1,246
255,50	0,760
256,00	0,770
256,50	0,744
257,00	0,660
257,50	1,042
258,00	0,938
258,50	0,814
259,00	1,237
259,50	1,024
260,00	0,517
260,50	0,744
261,00	0,485
261,50	0,786
262,00	0,995
262,50	1,101
263,00	0,936
263,50	1,013
264,00	1,551
264,50	1,657
265,00	1,720
265,50	1,575
266,00	1,457
266,50	1,122
267,00	0,697
267,50	0,271
268,00	-0,640
268,50	-0,244
269,00	-0,305
269,50	0,276
270,00	0,530
270,50	0,510
271,00	0,529
271,50	0,734
272,00	0,671
272,50	0,651
273,00	0,669
273,50	0,500
274,00	0,017
274,50	0,089
275,00	0,181
275,50	0,166
276,00	0,135
276,50	0,724
277,00	0,902
277,50	1,024
278,00	1,094
278,50	0,896
279,00	0,869
279,50	0,737
280,00	0,568
280,50	0,417
281,00	0,233
281,50	0,012
282,00	-0,174
282,50	0,265
283,00	0,306
283,50	0,352
284,00	0,448
284,50	0,493
285,00	0,522
285,50	0,485
286,00	0,470
286,50	0,445
287,00	0,458
287,50	0,436
288,00	0,430
288,50	0,420
289,00	0,428
289,50	0,434
290,00	0,439
290,50	0,449
291,00	0,454
291,50	0,456
292,00	0,453
292,50	0,445
293,00	0,433
293,50	0,416
294,00	0,397
294,50	0,376
295,00	0,353
295,50	0,334
296,00	0,318
296,50	0,308
297,00	0,301
297,50	0,294
298,00	0,290
298,50	0,287
299,00	0,284
299,50	0,281
300,00	0,279
300,50	0,277
301,00	0,275
301,50	0,273
302,00	0,272
302,50	0,270
303,00	0,269
303,50	0,267
304,00	0,266
304,50	0,265
305,00	0,263
305,50	0,261
306,00	0,260
306,50	0,259
307,00	0,257
307,50	0,256
308,00	0,254
308,50	0,253
309,00	0,252
309,50	0,251
310,00	0,250
310,50	0,249
311,00	0,248
311,50	0,247
312,00	0,247
312,50	0,246
313,00	0,245
313,50	0,244
314,00	0,243
314,50	0,242
315,00	0,241
315,50	0,240
316,00	0,240
316,50	0,239
317,00	0,238
317,50	0,237
318,00	0,237
318,50	0,236
319,00	0,235
319,50	0,235
320,00	0,234
320,50	0,233
321,00	0,233
321,50	0,232
322,00	0,231
322,50	0,230
323,00	0,230
323,50	0,229
324,00	0,228
324,50	0,228
325,00	0,227
325,50	0,226
326,00	0,226
326,50	0,225
327,00	0,225
327,50	0,224
328,00	0,224
328,50	0,223
329,00	0,223
329,50	0,222
330,00	0,222
330,50	0,222
331,00	0,221
331,50	0,221
332,00	0,220
332,50	0,220
333,00	0,220
333,50	0,219
334,00	0,219
334,50	0,218
335,00	0,218
335,50	0,218
336,00	0,218
336,50	0,217
337,00	0,217
337,50	0,216
338,00	0,216
338,50	0,216
339,00	0,216
339,50	0,215
340,00	0,215
340,50	0,215
341,00	0,214
341,50	0,214
342,00	0,214
342,50	0,214
343,00	0,213
343,50	0,213
344,00	0,213
344,50	0,213
345,00	0,213
345,50	0,213
346,00	0,212
346,50	0,212
347,00	0,212
347,50	0,212
348,00	0,212
348,50	0,211
349,00	0,211
349,50	0,211
350,00	0,211
350,50	0,210
351,00	0,210
351,50	0,210
352,00	0,210
352,50	0,210
353,00	0,210
353,50	0,210
354,00	0,209
354,50	0,209
355,00	0,209
355,50	0,209
356,00	0,209
356,50	0,208
357,00	0,208
357,50	0,208
358,00	0,208
358,50	0,207
359,00	0,207
359,50	0,207
360,00	0,207
360,50	0,206
361,00	0,206
361,50	0,206
362,00	0,205
362,50	0,205
363,00	0,205
363,50	0,205
364,00	0,204
364,50	0,204
365,00	0,204
365,50	0,204
366,00	0,204
366,50	0,203
367,00	0,203
367,50	0,203
368,00	0,203
368,50	0,203
369,00	0,202
369,50	0,202
370,00	0,202
370,50	0,201
371,00	0,201
371,50	0,201
372,00	0,200
372,50	0,200
373,00	0,199
373,50	0,199
374,00	0,198
374,50	0,198
375,00	0,197
375,50	0,197
376,00	0,196
376,50	0,196
377,00	0,195
377,50	0,195
378,00	0,194
378,50	0,194
379,00	0,194
379,50	0,193
380,00	0,193
380,50	0,192
381,00	0,192
381,50	0,192
382,00	0,191
382,50	0,191
383,00	0,190
383,50	0,190
384,00	0,190
384,50	0,189
385,00	0,189
385,50	0,189
386,00	0,189
386,50	0,188
387,00	0,188
387,50	0,188
388,00	0,187
388,50	0,187
389,00	0,187
389,50	0,187
390,00	0,186
390,50	0,186
391,00	0,186
391,50	0,186
392,00	0,186
392,50	0,185
393,00	0,185
393,50	0,185
394,00	0,184
394,50	0,184
395,00	0,184
395,50	0,184
396,00	0,183
396,50	0,183
397,00	0,183
397,50	0,182
398,00	0,182
398,50	0,182
399,00	0,181
399,50	0,181
400,00	0,181
400,50	0,181
401,00	0,180
401,50	0,180
402,00	0,180
402,50	0,180
403,00	0,180
403,50	0,179
404,00	0,179
404,50	0,179
405,00	0,179
405,50	0,179
406,00	0,178
406,50	0,178
407,00	0,178
407,50	0,178
408,00	0,178
408,50	0,178
409,00	0,177
409,50	0,177
410,00	0,177
410,50	0,177
411,00	0,177
411,50	0,176
412,00	0,176
412,50	0,176
413,00	0,176
413,50	0,176
414,00	0,176
414,50	0,176
415,00	0,176
415,50	0,175
416,00	0,175
416,50	0,175
417,00	0,175
417,50	0,175
418,00	0,174
418,50	0,174
419,00	0,174
419,50	0,174
420,00	0,174
420,50	0,174
421,00	0,174
421,50	0,174
422,00	0,174
422,50	0,174
423,00	0,174
423,50	0,173
424,00	0,173
424,50	0,173
425,00	0,173
425,50	0,173
426,00	0,173
426,50	0,173
427,00	0,173
427,50	0,173
428,00	0,173
428,50	0,173
429,00	0,173
429,50	0,173
430,00	0,173
430,50	0,172
431,00	0,172
431,50	0,172
432,00	0,172
432,50	0,172
433,00	0,172
433,50	0,172
434,00	0,172
434,50	0,172
435,00	0,172
435,50	0,172
436,00	0,172
436,50	0,172
437,00	0,172
437,50	0,172
438,00	0,172
438,50	0,172
439,00	0,172
439,50	0,172
440,00	0,172
440,50	0,172
441,00	0,172
441,50	0,173
442,00	0,173
442,50	0,173
443,00	0,173
443,50	0,173
444,00	0,173
444,50	0,173
445,00	0,173
445,50	0,173
446,00	0,173
446,50	0,173
447,00	0,174
447,50	0,174
448,00	0,174
448,50	0,174
449,00	0,174
449,50	0,174
450,00	0,174
450,50	0,174
451,00	0,175
451,50	0,175
452,00	0,175
452,50	0,175
453,00	0,175
453,50	0,175
454,00	0,176
454,50	0,176
455,00	0,176
455,50	0,176
456,00	0,176
456,50	0,177
457,00	0,177
457,50	0,177
458,00	0,177
458,50	0,178
459,00	0,178
459,50	0,178
460,00	0,178
460,50	0,179
461,00	0,179
461,50	0,179
462,00	0,180
462,50	0,180
463,00	0,181
463,50	0,181
464,00	0,181
464,50	0,182
465,00	0,182
465,50	0,182
466,00	0,183
466,50	0,183
467,00	0,184
467,50	0,184
468,00	0,185
468,50	0,185
469,00	0,186
469,50	0,186
470,00	0,187
470,50	0,187
471,00	0,188
471,50	0,188
472,00	0,189
472,50	0,189
473,00	0,190
473,50	0,191
474,00	0,191
474,50	0,192
475,00	0,192
475,50	0,193
476,00	0,194
476,50	0,195
477,00	0,195
477,50	0,196
478,00	0,197
478,50	0,198
479,00	0,198
479,50	0,199
480,00	0,200
480,50	0,201
481,00	0,202
481,50	0,203
482,00	0,204
482,50	0,204
483,00	0,205
483,50	0,207
484,00	0,208
484,50	0,209
485,00	0,210
485,50	0,211
486,00	0,212
486,50	0,213
487,00	0,214
487,50	0,215
488,00	0,217
488,50	0,218
489,00	0,219
489,50	0,220
490,00	0,222
490,50	0,223
491,00	0,224
491,50	0,226
492,00	0,227
492,50	0,228
493,00	0,230
493,50	0,231
494,00	0,232
494,50	0,234
495,00	0,235
495,50	0,237
496,00	0,238
496,50	0,240
497,00	0,241
497,50	0,243
498,00	0,244
498,50	0,245
499,00	0,247
499,50	0,248
500,00	0,250
500,50	0,251
501,00	0,252
501,50	0,254
502,00	0,255
502,50	0,256
503,00	0,258
503,50	0,259
504,00	0,260
504,50	0,262
505,00	0,263
505,50	0,264
506,00	0,265
506,50	0,267
507,00	0,268
507,50	0,269
508,00	0,270
508,50	0,271
509,00	0,272
509,50	0,273
510,00	0,274
510,50	0,275
511,00	0,276
511,50	0,276
512,00	0,277
512,50	0,278
513,00	0,279
513,50	0,279
514,00	0,280
514,50	0,280
515,00	0,281
515,50	0,281
516,00	0,281
516,50	0,281
517,00	0,282
517,50	0,282
518,00	0,282
518,50	0,282
519,00	0,281
519,50	0,281
520,00	0,281
520,50	0,281
521,00	0,280
521,50	0,280
522,00	0,279
522,50	0,279
523,00	0,278
523,50	0,277
524,00	0,276
524,50	0,275
525,00	0,274
525,50	0,273
526,00	0,272
526,50	0,271
527,00	0,270
527,50	0,268
528,00	0,267
528,50	0,265
529,00	0,264
529,50	0,263
530,00	0,261
530,50	0,260
531,00	0,258
531,50	0,256
532,00	0,254
532,50	0,253
533,00	0,251
533,50	0,249
534,00	0,247
534,50	0,245
535,00	0,243
535,50	0,241
536,00	0,238
536,50	0,236
537,00	0,234
537,50	0,232
538,00	0,230
538,50	0,227
539,00	0,225
539,50	0,223
540,00	0,220
540,50	0,218
541,00	0,216
541,50	0,213
542,00	0,211
542,50	0,208
543,00	0,206
543,50	0,204
544,00	0,201
544,50	0,199
545,00	0,196
545,50	0,194
546,00	0,192
546,50	0,189
547,00	0,187
547,50	0,184
548,00	0,182
548,50	0,180
549,00	0,177
549,50	0,175
550,00	0,173
550,50	0,171
551,00	0,169
551,50	0,166
552,00	0,164
552,50	0,162
553,00	0,160
553,50	0,158
554,00	0,156
554,50	0,153
555,00	0,151
555,50	0,149
556,00	0,147
556,50	0,145
557,00	0,143
557,50	0,141
558,00	0,139
558,50	0,137
559,00	0,135
559,50	0,133
560,00	0,131
560,50	0,130
561,00	0,128
561,50	0,126
562,00	0,124
562,50	0,122
563,00	0,121
563,50	0,119
564,00	0,117
564,50	0,116
565,00	0,114
565,50	0,112
566,00	0,111
566,50	0,109
567,00	0,107
567,50	0,106
568,00	0,104
568,50	0,103
569,00	0,101
569,50	0,100
570,00	0,099
570,50	0,097
571,00	0,096
571,50	0,095
572,00	0,093
572,50	0,092
573,00	0,091
573,50	0,090
574,00	0,089
574,50	0,087
575,00	0,086
575,50	0,085
576,00	0,084
576,50	0,083
577,00	0,082
577,50	0,081
578,00	0,080
578,50	0,079
579,00	0,078
579,50	0,077
580,00	0,076
580,50	0,075
581,00	0,074
581,50	0,073
582,00	0,072
582,50	0,071
583,00	0,071
583,50	0,070
584,00	0,069
584,50	0,068
585,00	0,067
585,50	0,066
586,00	0,066
586,50	0,065
587,00	0,064
587,50	0,063
588,00	0,062
588,50	0,061
589,00	0,061
589,50	0,060
590,00	0,059
590,50	0,058
591,00	0,058
591,50	0,057
592,00	0,056
592,50	0,056
593,00	0,055
593,50	0,054
594,00	0,054
594,50	0,053
595,00	0,052
595,50	0,052
596,00	0,051
596,50	0,051
597,00	0,050
597,50	0,049
598,00	0,049
598,50	0,048
599,00	0,048
599,50	0,047
600,00	0,047
600,50	0,046
601,00	0,046
601,50	0,045
602,00	0,045
602,50	0,044
603,00	0,044
603,50	0,043
604,00	0,043
604,50	0,043
605,00	0,042
605,50	0,042
606,00	0,041
606,50	0,041
607,00	0,040
607,50	0,040
608,00	0,040
608,50	0,039
609,00	0,039
609,50	0,038
610,00	0,038
610,50	0,038
611,00	0,037
611,50	0,037
612,00	0,037
612,50	0,036
613,00	0,036
613,50	0,035
614,00	0,035
614,50	0,035
615,00	0,035
615,50	0,034
616,00	0,034
616,50	0,033
617,00	0,033
617,50	0,033
618,00	0,033
618,50	0,032
619,00	0,032
619,50	0,032
620,00	0,031
620,50	0,031
621,00	0,031
621,50	0,031
622,00	0,030
622,50	0,030
623,00	0,030
623,50	0,030
624,00	0,029
624,50	0,029
625,00	0,029
625,50	0,028
626,00	0,028
626,50	0,028
627,00	0,028
627,50	0,027
628,00	0,027
628,50	0,027
629,00	0,027
629,50	0,027
630,00	0,026
630,50	0,026
631,00	0,026
631,50	0,026
632,00	0,025
632,50	0,025
633,00	0,025
633,50	0,025
634,00	0,025
634,50	0,024
635,00	0,024
635,50	0,024
636,00	0,024
636,50	0,024
637,00	0,023
637,50	0,023
638,00	0,023
638,50	0,023
639,00	0,022
639,50	0,022
640,00	0,022
640,50	0,022
641,00	0,022
641,50	0,022
642,00	0,022
642,50	0,021
643,00	0,021
643,50	0,021
644,00	0,021
644,50	0,021
645,00	0,021
645,50	0,021
646,00	0,020
646,50	0,020
647,00	0,020
647,50	0,020
648,00	0,020
648,50	0,019
649,00	0,019
649,50	0,019
650,00	0,019
650,50	0,019
651,00	0,019
651,50	0,019
652,00	0,018
652,50	0,018
653,00	0,018
653,50	0,018
654,00	0,018
654,50	0,018
655,00	0,018
655,50	0,018
656,00	0,017
656,50	0,017
657,00	0,017
657,50	0,017
658,00	0,017
658,50	0,017
659,00	0,017
659,50	0,016
660,00	0,016
660,50	0,016
661,00	0,016
661,50	0,016
662,00	0,016
662,50	0,016
663,00	0,016
663,50	0,016
664,00	0,016
664,50	0,015
665,00	0,015
665,50	0,015
666,00	0,015
666,50	0,015
667,00	0,015
667,50	0,015
668,00	0,015
668,50	0,015
669,00	0,015
669,50	0,015
670,00	0,015
670,50	0,015
671,00	0,014
671,50	0,014
672,00	0,014
672,50	0,014
673,00	0,014
673,50	0,014
674,00	0,014
674,50	0,014
675,00	0,014
675,50	0,014
676,00	0,014
676,50	0,014
677,00	0,013
677,50	0,013
678,00	0,013
678,50	0,013
679,00	0,013
679,50	0,013
680,00	0,013
680,50	0,013
681,00	0,013
681,50	0,013
682,00	0,012
682,50	0,012
683,00	0,012
683,50	0,012
684,00	0,012
684,50	0,012
685,00	0,012
685,50	0,012
686,00	0,012
686,50	0,012
687,00	0,012
687,50	0,011
688,00	0,011
688,50	0,011
689,00	0,011
689,50	0,011
690,00	0,011
690,50	0,011
691,00	0,011
691,50	0,011
692,00	0,011
692,50	0,011
693,00	0,011
693,50	0,011
694,00	0,011
694,50	0,011
695,00	0,011
695,50	0,010
696,00	0,010
696,50	0,010
697,00	0,010
697,50	0,010
698,00	0,010
698,50	0,010
699,00	0,010
699,50	0,010
700,00	0,010
700,50	0,010
701,00	0,010
701,50	0,010
702,00	0,010
702,50	0,010
703,00	0,010
703,50	0,010
704,00	0,010
704,50	0,009
705,00	0,009
705,50	0,009
706,00	0,009
706,50	0,009
707,00	0,009
707,50	0,009
708,00	0,009
708,50	0,009
709,00	0,009
709,50	0,009
710,00	0,009
710,50	0,009
711,00	0,009
711,50	0,009
712,00	0,009
712,50	0,009
713,00	0,009
713,50	0,009
714,00	0,009
714,50	0,008
715,00	0,008
715,50	0,008
716,00	0,008
716,50	0,008
717,00	0,008
717,50	0,008
718,00	0,008
718,50	0,008
719,00	0,008
719,50	0,008
720,00	0,008
720,50	0,008
721,00	0,008
721,50	0,008
722,00	0,008
722,50	0,008
723,00	0,008
723,50	0,008
724,00	0,008
724,50	0,007
725,00	0,008
725,50	0,008
726,00	0,008
726,50	0,008
727,00	0,008
727,50	0,007
728,00	0,007
728,50	0,007
729,00	0,007
729,50	0,007
730,00	0,007
730,50	0,007
731,00	0,007
731,50	0,007
732,00	0,007
732,50	0,007
733,00	0,007
733,50	0,007
734,00	0,007
734,50	0,007
735,00	0,007
735,50	0,007
736,00	0,007
736,50	0,007
737,00	0,007
737,50	0,007
738,00	0,007
738,50	0,007
739,00	0,007
739,50	0,007
740,00	0,007
740,50	0,007
741,00	0,006
741,50	0,006
742,00	0,006
742,50	0,006
743,00	0,006
743,50	0,006
744,00	0,006
744,50	0,006
745,00	0,006
745,50	0,006
746,00	0,006
746,50	0,006
747,00	0,006
747,50	0,006
748,00	0,006
748,50	0,006
749,00	0,006
749,50	0,006
750,00	0,006
750,50	0,006
751,00	0,006
751,50	0,006
752,00	0,006
752,50	0,006
753,00	0,005
753,50	0,006
754,00	0,005
754,50	0,006
755,00	0,005
755,50	0,006
756,00	0,006
756,50	0,006
757,00	0,006
757,50	0,006
758,00	0,005
758,50	0,005
759,00	0,005
759,50	0,005
760,00	0,005
760,50	0,005
761,00	0,005
761,50	0,005
762,00	0,005
762,50	0,005
763,00	0,005
763,50	0,005
764,00	0,005
764,50	0,005
765,00	0,005
765,50	0,005
766,00	0,005
766,50	0,005
767,00	0,005
767,50	0,005
768,00	0,005
768,50	0,005
769,00	0,005
769,50	0,005
770,00	0,005
770,50	0,005
771,00	0,005
771,50	0,005
772,00	0,004
772,50	0,004
773,00	0,004
773,50	0,004
774,00	0,004
774,50	0,004
775,00	0,004
775,50	0,004
776,00	0,004
776,50	0,004
777,00	0,004
777,50	0,004
778,00	0,004
778,50	0,004
779,00	0,004
779,50	0,004
780,00	0,004
780,50	0,004
781,00	0,004
781,50	0,004
782,00	0,004
782,50	0,004
783,00	0,004
783,50	0,004
784,00	0,004
784,50	0,004
785,00	0,004
785,50	0,004
786,00	0,004
786,50	0,004
787,00	0,004
787,50	0,004
788,00	0,004
788,50	0,004
789,00	0,004
789,50	0,004
790,00	0,004
790,50	0,004
791,00	0,004
791,50	0,004
792,00	0,004
792,50	0,004
793,00	0,004
793,50	0,004
794,00	0,004
794,50	0,004
795,00	0,004
795,50	0,004
796,00	0,004
796,50	0,004
797,00	0,004
797,50	0,004
798,00	0,004
798,50	0,004
799,00	0,004
799,50	0,004
800,00	0,004