File: Lambda max, Extincion max y Area/oro/6/3.14e-4.txt
"3.14e-4 - Dataset 225010"
"Wavelength nm."	"Abs."
200,00	0,523
200,50	0,523
201,00	0,523
201,50	0,523
202,00	0,523
202,50	0,523
203,00	0,523
203,50	0,523
204,00	0,523
204,50	0,521
205,00	0,519
205,50	0,518
206,00	0,516
206,50	0,514
207,00	0,513
207,50	0,511
208,00	0,510
208,50	0,508
209,00	0,507
209,50	0,506
210,00	0,504
210,50	0,503
211,00	0,502
211,50	0,500
212,00	0,499
212,50	0,497
213,00	0,496
213,50	0,494
214,00	0,493
214,50	0,491
215,00	0,489
215,50	0,488
216,00	0,486
216,50	0,484
217,00	0,483
217,50	0,481
218,00	0,480
218,50	0,478
219,00	0,477
219,50	0,475
220,00	0,474
220,50	0,473
221,00	0,472
221,50	0,470
222,00	0,469
222,50	0,468
223,00	0,467
223,50	0,466
224,00	0,465
224,50	0,464
225,00	0,463
225,50	0,462
226,00	0,461
226,50	0,460
227,00	0,459
227,50	0,459
228,00	0,458
228,50	0,457
229,00	0,456
229,50	0,456
230,00	0,455
230,50	0,454
231,00	0,454
231,50	0,453
232,00	0,453
232,50	0,452
233,00	0,452
233,50	0,451
234,00	0,451
234,50	0,451
235,00	0,450
235,50	0,450
236,00	0,449
236,50	0,449
237,00	0,449
237,50	0,449
238,00	0,448
238,50	0,448
239,00	0,448
239,50	0,448
240,00	0,447
240,50	0,447
241,00	0,447
241,50	0,447
242,00	0,446
242,50	0,446
243,00	0,446
243,50	0,446
244,00	0,446
244,50	0,445
245,00	0,445
245,50	0,445
246,00	0,445
246,50	0,445
247,00	0,444
247,50	0,444
248,00	0,444
248,50	0,443
249,00	0,443
249,50	0,443
250,00	0,442
250,50	0,442
251,00	0,442
251,50	0,441
252,00	0,441
252,50	0,440
253,00	0,440
253,50	0,439
254,00	0,438
254,50	0,437
255,00	0,437
255,50	0,436
256,00	0,435
256,50	0,434
257,00	0,433
257,50	0,432
258,00	0,431
258,50	0,430
259,00	0,429
259,50	0,428
260,00	0,427
260,50	0,426
261,00	0,425
261,50	0,423
262,00	0,422
262,50	0,421
263,00	0,420
263,50	0,418
264,00	0,417
264,50	0,416
265,00	0,414
265,50	0,413
266,00	0,411
266,50	0,410
267,00	0,408
267,50	0,407
268,00	0,405
268,50	0,403
269,00	0,402
269,50	0,400
270,00	0,399
270,50	0,397
271,00	0,395
271,50	0,394
272,00	0,392
272,50	0,390
273,00	0,389
273,50	0,387
274,00	0,385
274,50	0,383
275,00	0,381
275,50	0,380
276,00	0,378
276,50	0,376
277,00	0,374
277,50	0,373
278,00	0,371
278,50	0,370
279,00	0,368
279,50	0,367
280,00	0,365
280,50	0,364
281,00	0,362
281,50	0,360
282,00	0,359
282,50	0,357
283,00	0,356
283,50	0,354
284,00	0,353
284,50	0,351
285,00	0,350
285,50	0,349
286,00	0,347
286,50	0,347
287,00	0,345
287,50	0,343
288,00	0,343
288,50	0,340
289,00	0,339
289,50	0,337
290,00	0,332
290,50	0,330
291,00	0,330
291,50	0,327
292,00	0,327
292,50	0,326
293,00	0,329
293,50	0,328
294,00	0,327
294,50	0,325
295,00	0,322
295,50	0,321
296,00	0,322
296,50	0,318
297,00	0,317
297,50	0,312
298,00	0,307
298,50	0,304
299,00	0,304
299,50	0,299
300,00	0,304
300,50	0,307
301,00	0,311
301,50	0,310
302,00	0,309
302,50	0,309
303,00	0,309
303,50	0,310
304,00	0,308
304,50	0,304
305,00	0,302
305,50	0,298
306,00	0,296
306,50	0,291
307,00	0,292
307,50	0,291
308,00	0,292
308,50	0,293
309,00	0,294
309,50	0,294
310,00	0,292
310,50	0,293
311,00	0,292
311,50	0,291
312,00	0,288
312,50	0,288
313,00	0,289
313,50	0,287
314,00	0,288
314,50	0,287
315,00	0,287
315,50	0,286
316,00	0,283
316,50	0,285
317,00	0,285
317,50	0,284
318,00	0,282
318,50	0,283
319,00	0,282
319,50	0,280
320,00	0,279
320,50	0,278
321,00	0,278
321,50	0,276
322,00	0,275
322,50	0,276
323,00	0,276
323,50	0,275
324,00	0,275
324,50	0,275
325,00	0,276
325,50	0,274
326,00	0,275
326,50	0,274
327,00	0,274
327,50	0,272
328,00	0,271
328,50	0,269
329,00	0,269
329,50	0,268
330,00	0,267
330,50	0,267
331,00	0,264
331,50	0,262
332,00	0,260
332,50	0,259
333,00	0,258
333,50	0,257
334,00	0,258
334,50	0,259
335,00	0,259
335,50	0,259
336,00	0,259
336,50	0,258
337,00	0,259
337,50	0,257
338,00	0,256
338,50	0,256
339,00	0,256
339,50	0,256
340,00	0,255
340,50	0,255
341,00	0,255
341,50	0,255
342,00	0,255
342,50	0,257
343,00	0,256
343,50	0,255
344,00	0,253
344,50	0,253
345,00	0,253
345,50	0,252
346,00	0,253
346,50	0,252
347,00	0,252
347,50	0,252
348,00	0,252
348,50	0,250
349,00	0,249
349,50	0,249
350,00	0,249
350,50	0,250
351,00	0,249
351,50	0,248
352,00	0,248
352,50	0,250
353,00	0,251
353,50	0,252
354,00	0,253
354,50	0,253
355,00	0,253
355,50	0,255
356,00	0,253
356,50	0,251
357,00	0,251
357,50	0,251
358,00	0,250
358,50	0,248
359,00	0,248
359,50	0,246
360,00	0,246
360,50	0,246
361,00	0,247
361,50	0,247
362,00	0,246
362,50	0,247
363,00	0,248
363,50	0,247
364,00	0,247
364,50	0,248
365,00	0,247
365,50	0,247
366,00	0,245
366,50	0,246
367,00	0,247
367,50	0,246
368,00	0,247
368,50	0,247
369,00	0,246
369,50	0,245
370,00	0,245
370,50	0,246
371,00	0,244
371,50	0,243
372,00	0,242
372,50	0,242
373,00	0,242
373,50	0,242
374,00	0,242
374,50	0,243
375,00	0,243
375,50	0,244
376,00	0,245
376,50	0,245
377,00	0,243
377,50	0,242
378,00	0,242
378,50	0,241
379,00	0,239
379,50	0,238
380,00	0,238
380,50	0,239
381,00	0,238
381,50	0,237
382,00	0,237
382,50	0,236
383,00	0,236
383,50	0,237
384,00	0,236
384,50	0,235
385,00	0,234
385,50	0,233
386,00	0,231
386,50	0,231
387,00	0,231
387,50	0,230
388,00	0,230
388,50	0,229
389,00	0,230
389,50	0,230
390,00	0,231
390,50	0,231
391,00	0,232
391,50	0,231
392,00	0,232
392,50	0,232
393,00	0,233
393,50	0,232
394,00	0,232
394,50	0,233
395,00	0,232
395,50	0,230
396,00	0,230
396,50	0,230
397,00	0,229
397,50	0,228
398,00	0,227
398,50	0,227
399,00	0,225
399,50	0,225
400,00	0,226
400,50	0,226
401,00	0,225
401,50	0,225
402,00	0,226
402,50	0,225
403,00	0,224
403,50	0,224
404,00	0,224
404,50	0,224
405,00	0,224
405,50	0,224
406,00	0,223
406,50	0,222
407,00	0,222
407,50	0,222
408,00	0,222
408,50	0,221
409,00	0,220
409,50	0,219
410,00	0,219
410,50	0,219
411,00	0,219
411,50	0,219
412,00	0,219
412,50	0,220
413,00	0,220
413,50	0,220
414,00	0,220
414,50	0,221
415,00	0,221
415,50	0,220
416,00	0,220
416,50	0,218
417,00	0,218
417,50	0,218
418,00	0,219
418,50	0,220
419,00	0,220
419,50	0,219
420,00	0,219
420,50	0,220
421,00	0,220
421,50	0,220
422,00	0,220
422,50	0,220
423,00	0,219
423,50	0,217
424,00	0,218
424,50	0,217
425,00	0,217
425,50	0,219
426,00	0,219
426,50	0,218
427,00	0,218
427,50	0,217
428,00	0,219
428,50	0,219
429,00	0,219
429,50	0,218
430,00	0,218
430,50	0,218
431,00	0,218
431,50	0,217
432,00	0,217
432,50	0,216
433,00	0,216
433,50	0,216
434,00	0,215
434,50	0,214
435,00	0,214
435,50	0,215
436,00	0,215
436,50	0,214
437,00	0,214
437,50	0,214
438,00	0,215
438,50	0,215
439,00	0,216
439,50	0,215
440,00	0,215
440,50	0,215
441,00	0,216
441,50	0,218
442,00	0,219
442,50	0,220
443,00	0,220
443,50	0,220
444,00	0,220
444,50	0,219
445,00	0,219
445,50	0,219
446,00	0,219
446,50	0,218
447,00	0,217
447,50	0,216
448,00	0,215
448,50	0,214
449,00	0,215
449,50	0,216
450,00	0,217
450,50	0,217
451,00	0,218
451,50	0,218
452,00	0,218
452,50	0,219
453,00	0,220
453,50	0,220
454,00	0,221
454,50	0,221
455,00	0,221
455,50	0,221
456,00	0,221
456,50	0,221
457,00	0,221
457,50	0,221
458,00	0,221
458,50	0,221
459,00	0,222
459,50	0,221
460,00	0,222
460,50	0,223
461,00	0,223
461,50	0,224
462,00	0,224
462,50	0,224
463,00	0,224
463,50	0,225
464,00	0,225
464,50	0,225
465,00	0,225
465,50	0,226
466,00	0,226
466,50	0,227
467,00	0,228
467,50	0,228
468,00	0,228
468,50	0,228
469,00	0,229
469,50	0,229
470,00	0,230
470,50	0,230
471,00	0,231
471,50	0,232
472,00	0,233
472,50	0,233
473,00	0,236
473,50	0,237
474,00	0,238
474,50	0,239
475,00	0,240
475,50	0,240
476,00	0,241
476,50	0,241
477,00	0,243
477,50	0,243
478,00	0,245
478,50	0,245
479,00	0,246
479,50	0,248
480,00	0,249
480,50	0,249
481,00	0,251
481,50	0,252
482,00	0,253
482,50	0,254
483,00	0,255
483,50	0,256
484,00	0,257
484,50	0,258
485,00	0,260
485,50	0,261
486,00	0,263
486,50	0,264
487,00	0,266
487,50	0,268
488,00	0,270
488,50	0,271
489,00	0,273
489,50	0,274
490,00	0,276
490,50	0,278
491,00	0,280
491,50	0,281
492,00	0,283
492,50	0,285
493,00	0,287
493,50	0,289
494,00	0,291
494,50	0,293
495,00	0,295
495,50	0,298
496,00	0,299
496,50	0,301
497,00	0,303
497,50	0,305
498,00	0,307
498,50	0,309
499,00	0,312
499,50	0,314
500,00	0,317
500,50	0,319
501,00	0,321
501,50	0,323
502,00	0,325
502,50	0,327
503,00	0,329
503,50	0,331
504,00	0,332
504,50	0,335
505,00	0,337
505,50	0,340
506,00	0,342
506,50	0,344
507,00	0,347
507,50	0,349
508,00	0,351
508,50	0,354
509,00	0,356
509,50	0,359
510,00	0,360
510,50	0,362
511,00	0,364
511,50	0,365
512,00	0,367
512,50	0,369
513,00	0,370
513,50	0,371
514,00	0,371
514,50	0,371
515,00	0,372
515,50	0,373
516,00	0,374
516,50	0,375
517,00	0,376
517,50	0,377
518,00	0,377
518,50	0,378
519,00	0,380
519,50	0,380
520,00	0,381
520,50	0,381
521,00	0,381
521,50	0,381
522,00	0,381
522,50	0,381
523,00	0,380
523,50	0,380
524,00	0,379
524,50	0,378
525,00	0,378
525,50	0,378
526,00	0,377
526,50	0,376
527,00	0,376
527,50	0,375
528,00	0,374
528,50	0,374
529,00	0,372
529,50	0,371
530,00	0,370
530,50	0,368
531,00	0,366
531,50	0,365
532,00	0,362
532,50	0,361
533,00	0,360
533,50	0,358
534,00	0,355
534,50	0,353
535,00	0,352
535,50	0,350
536,00	0,349
536,50	0,347
537,00	0,345
537,50	0,343
538,00	0,341
538,50	0,340
539,00	0,339
539,50	0,337
540,00	0,336
540,50	0,334
541,00	0,331
541,50	0,328
542,00	0,326
542,50	0,323
543,00	0,320
543,50	0,317
544,00	0,314
544,50	0,311
545,00	0,307
545,50	0,305
546,00	0,303
546,50	0,299
547,00	0,296
547,50	0,293
548,00	0,291
548,50	0,288
549,00	0,285
549,50	0,283
550,00	0,281
550,50	0,278
551,00	0,276
551,50	0,273
552,00	0,270
552,50	0,268
553,00	0,265
553,50	0,263
554,00	0,261
554,50	0,258
555,00	0,255
555,50	0,252
556,00	0,250
556,50	0,247
557,00	0,245
557,50	0,243
558,00	0,240
558,50	0,237
559,00	0,234
559,50	0,231
560,00	0,228
560,50	0,225
561,00	0,223
561,50	0,221
562,00	0,218
562,50	0,215
563,00	0,212
563,50	0,210
564,00	0,207
564,50	0,205
565,00	0,202
565,50	0,200
566,00	0,197
566,50	0,194
567,00	0,192
567,50	0,190
568,00	0,188
568,50	0,185
569,00	0,184
569,50	0,182
570,00	0,179
570,50	0,178
571,00	0,176
571,50	0,174
572,00	0,172
572,50	0,169
573,00	0,167
573,50	0,165
574,00	0,163
574,50	0,162
575,00	0,160
575,50	0,158
576,00	0,156
576,50	0,155
577,00	0,153
577,50	0,150
578,00	0,149
578,50	0,147
579,00	0,145
579,50	0,143
580,00	0,141
580,50	0,139
581,00	0,137
581,50	0,135
582,00	0,134
582,50	0,132
583,00	0,130
583,50	0,129
584,00	0,127
584,50	0,126
585,00	0,124
585,50	0,122
586,00	0,121
586,50	0,119
587,00	0,118
587,50	0,116
588,00	0,114
588,50	0,113
589,00	0,111
589,50	0,110
590,00	0,110
590,50	0,109
591,00	0,108
591,50	0,107
592,00	0,106
592,50	0,105
593,00	0,103
593,50	0,102
594,00	0,101
594,50	0,099
595,00	0,098
595,50	0,096
596,00	0,095
596,50	0,093
597,00	0,092
597,50	0,091
598,00	0,090
598,50	0,089
599,00	0,088
599,50	0,086
600,00	0,085
600,50	0,084
601,00	0,083
601,50	0,083
602,00	0,083
602,50	0,082
603,00	0,082
603,50	0,081
604,00	0,080
604,50	0,079
605,00	0,078
605,50	0,076
606,00	0,075
606,50	0,074
607,00	0,073
607,50	0,072
608,00	0,072
608,50	0,070
609,00	0,069
609,50	0,068
610,00	0,068
610,50	0,067
611,00	0,067
611,50	0,066
612,00	0,065
612,50	0,064
613,00	0,063
613,50	0,063
614,00	0,063
614,50	0,062
615,00	0,062
615,50	0,061
616,00	0,060
616,50	0,059
617,00	0,058
617,50	0,058
618,00	0,057
618,50	0,056
619,00	0,056
619,50	0,056
620,00	0,056
620,50	0,055
621,00	0,055
621,50	0,054
622,00	0,054
622,50	0,053
623,00	0,052
623,50	0,052
624,00	0,050
624,50	0,049
625,00	0,048
625,50	0,048
626,00	0,047
626,50	0,046
627,00	0,046
627,50	0,046
628,00	0,046
628,50	0,045
629,00	0,045
629,50	0,045
630,00	0,045
630,50	0,045
631,00	0,044
631,50	0,045
632,00	0,044
632,50	0,044
633,00	0,044
633,50	0,043
634,00	0,042
634,50	0,041
635,00	0,040
635,50	0,040
636,00	0,039
636,50	0,038
637,00	0,037
637,50	0,037
638,00	0,036
638,50	0,035
639,00	0,035
639,50	0,036
640,00	0,036
640,50	0,035
641,00	0,035
641,50	0,035
642,00	0,034
642,50	0,034
643,00	0,034
643,50	0,034
644,00	0,034
644,50	0,033
645,00	0,033
645,50	0,032
646,00	0,033
646,50	0,032
647,00	0,032
647,50	0,032
648,00	0,032
648,50	0,031
649,00	0,031
649,50	0,030
650,00	0,030
650,50	0,029
651,00	0,029
651,50	0,029
652,00	0,029
652,50	0,028
653,00	0,029
653,50	0,029
654,00	0,029
654,50	0,028
655,00	0,028
655,50	0,028
656,00	0,028
656,50	0,028
657,00	0,027
657,50	0,027
658,00	0,026
658,50	0,026
659,00	0,026
659,50	0,026
660,00	0,027
660,50	0,027
661,00	0,027
661,50	0,026
662,00	0,026
662,50	0,026
663,00	0,025
663,50	0,025
664,00	0,025
664,50	0,023
665,00	0,023
665,50	0,022
666,00	0,021
666,50	0,021
667,00	0,021
667,50	0,021
668,00	0,021
668,50	0,021
669,00	0,021
669,50	0,022
670,00	0,022
670,50	0,023
671,00	0,022
671,50	0,023
672,00	0,022
672,50	0,022
673,00	0,023
673,50	0,022
674,00	0,022
674,50	0,022
675,00	0,021
675,50	0,021
676,00	0,019
676,50	0,019
677,00	0,018
677,50	0,017
678,00	0,018
678,50	0,018
679,00	0,017
679,50	0,017
680,00	0,017
680,50	0,018
681,00	0,018
681,50	0,018
682,00	0,018
682,50	0,017
683,00	0,017
683,50	0,018
684,00	0,017
684,50	0,018
685,00	0,018
685,50	0,019
686,00	0,019
686,50	0,019
687,00	0,018
687,50	0,018
688,00	0,017
688,50	0,017
689,00	0,016
689,50	0,016
690,00	0,016
690,50	0,015
691,00	0,016
691,50	0,015
692,00	0,015
692,50	0,015
693,00	0,014
693,50	0,014
694,00	0,015
694,50	0,014
695,00	0,014
695,50	0,014
696,00	0,014
696,50	0,014
697,00	0,014
697,50	0,014
698,00	0,014
698,50	0,013
699,00	0,013
699,50	0,013
700,00	0,014
700,50	0,014
701,00	0,014
701,50	0,014
702,00	0,013
702,50	0,012
703,00	0,012
703,50	0,011
704,00	0,010
704,50	0,010
705,00	0,012
705,50	0,012
706,00	0,012
706,50	0,013
707,00	0,014
707,50	0,014
708,00	0,015
708,50	0,015
709,00	0,015
709,50	0,013
710,00	0,012
710,50	0,012
711,00	0,011
711,50	0,011
712,00	0,012
712,50	0,012
713,00	0,011
713,50	0,010
714,00	0,011
714,50	0,011
715,00	0,010
715,50	0,010
716,00	0,011
716,50	0,011
717,00	0,010
717,50	0,009
718,00	0,010
718,50	0,011
719,00	0,012
719,50	0,013
720,00	0,012
720,50	0,011
721,00	0,011
721,50	0,011
722,00	0,010
722,50	0,011
723,00	0,009
723,50	0,009
724,00	0,008
724,50	0,007
725,00	0,006
725,50	0,007
726,00	0,007
726,50	0,008
727,00	0,008
727,50	0,008
728,00	0,009
728,50	0,009
729,00	0,010
729,50	0,010
730,00	0,010
730,50	0,010
731,00	0,010
731,50	0,011
732,00	0,011
732,50	0,011
733,00	0,011
733,50	0,011
734,00	0,011
734,50	0,010
735,00	0,009
735,50	0,009
736,00	0,008
736,50	0,007
737,00	0,007
737,50	0,006
738,00	0,007
738,50	0,006
739,00	0,008
739,50	0,008
740,00	0,009
740,50	0,008
741,00	0,008
741,50	0,008
742,00	0,008
742,50	0,006
743,00	0,007
743,50	0,006
744,00	0,006
744,50	0,006
745,00	0,006
745,50	0,007
746,00	0,009
746,50	0,009
747,00	0,010
747,50	0,010
748,00	0,011
748,50	0,010
749,00	0,010
749,50	0,010
750,00	0,010
750,50	0,008
751,00	0,009
751,50	0,008
752,00	0,007
752,50	0,006
753,00	0,006
753,50	0,007
754,00	0,007
754,50	0,006
755,00	0,005
755,50	0,005
756,00	0,005
756,50	0,006
757,00	0,007
757,50	0,008
758,00	0,008
758,50	0,008
759,00	0,008
759,50	0,008
760,00	0,008
760,50	0,008
761,00	0,008
761,50	0,007
762,00	0,008
762,50	0,007
763,00	0,007
763,50	0,007
764,00	0,007
764,50	0,008
765,00	0,009
765,50	0,008
766,00	0,008
766,50	0,006
767,00	0,005
767,50	0,005
768,00	0,005
768,50	0,005
769,00	0,005
769,50	0,004
770,00	0,005
770,50	0,005
771,00	0,005
771,50	0,005
772,00	0,005
772,50	0,005
773,00	0,006
773,50	0,005
774,00	0,004
774,50	0,004
775,00	0,004
775,50	0,005
776,00	0,005
776,50	0,005
777,00	0,004
777,50	0,004
778,00	0,004
778,50	0,004
779,00	0,005
779,50	0,005
780,00	0,005
780,50	0,005
781,00	0,007
781,50	0,007
782,00	0,006
782,50	0,007
783,00	0,009
783,50	0,009
784,00	0,009
784,50	0,008
785,00	0,007
785,50	0,007
786,00	0,006
786,50	0,006
787,00	0,005
787,50	0,005
788,00	0,005
788,50	0,004
789,00	0,004
789,50	0,005
790,00	0,004
790,50	0,005
791,00	0,007
791,50	0,007
792,00	0,005
792,50	0,005
793,00	0,004
793,50	0,004
794,00	0,003
794,50	0,003
795,00	0,003
795,50	0,005
796,00	0,004
796,50	0,004
797,00	0,004
797,50	0,004
798,00	0,004
798,50	0,004
799,00	0,004
799,50	0,004
800,00	0,004