File: Espectro Uv-Vis/pH/0.5ml e-2M (pH=4.4)/0.5e-2M.txt
"0.5e-2M(2) - Dataset 180943"
"Wavelength nm."	"Abs."
200,00	1,690
200,50	1,690
201,00	1,690
201,50	1,690
202,00	1,690
202,50	1,690
203,00	1,690
203,50	1,690
204,00	1,690
204,50	1,843
205,00	2,499
205,50	3,010
206,00	3,111
206,50	2,668
207,00	2,617
207,50	3,049
208,00	2,493
208,50	3,179
209,00	2,656
209,50	2,559
210,00	1,739
210,50	2,056
211,00	2,041
211,50	1,805
212,00	2,060
212,50	2,652
213,00	3,218
213,50	2,842
214,00	2,476
214,50	2,689
215,00	3,151
215,50	2,742
216,00	2,374
216,50	3,097
217,00	2,959
217,50	2,875
218,00	2,804
218,50	3,107
219,00	2,703
219,50	2,840
220,00	2,673
220,50	2,167
221,00	1,685
221,50	1,322
222,00	1,980
222,50	2,695
223,00	2,749
223,50	2,240
224,00	2,385
224,50	3,272
225,00	3,480
225,50	3,375
226,00	3,757
226,50	3,345
227,00	2,828
227,50	2,275
228,00	1,491
228,50	1,162
229,00	0,545
229,50	0,779
230,00	1,098
230,50	1,012
231,00	0,754
231,50	0,373
232,00	0,188
232,50	0,919
233,00	1,102
233,50	1,241
234,00	1,297
234,50	0,810
235,00	0,689
235,50	0,756
236,00	1,346
236,50	1,668
237,00	1,748
237,50	2,361
238,00	2,381
238,50	2,538
239,00	2,448
239,50	2,270
240,00	1,441
240,50	1,467
241,00	1,605
241,50	1,597
242,00	1,366
242,50	0,935
243,00	0,976
243,50	0,788
244,00	1,496
244,50	1,593
245,00	1,692
245,50	1,577
246,00	1,455
246,50	1,377
247,00	1,045
247,50	0,272
248,00	-0,378
248,50	0,273
249,00	1,063
249,50	1,303
250,00	1,050
250,50	0,955
251,00	1,288
251,50	1,565
252,00	2,340
252,50	2,527
253,00	2,590
253,50	2,482
254,00	2,325
254,50	2,068
255,00	1,584
255,50	0,579
256,00	0,806
256,50	1,239
257,00	0,991
257,50	0,573
258,00	0,131
258,50	0,356
259,00	0,357
259,50	0,272
260,00	0,319
260,50	0,948
261,00	1,482
261,50	1,512
262,00	1,896
262,50	2,323
263,00	2,450
263,50	2,432
264,00	2,979
264,50	2,929
265,00	2,661
265,50	1,840
266,00	1,622
266,50	0,838
267,00	0,459
267,50	0,625
268,00	0,868
268,50	1,279
269,00	1,212
269,50	0,961
270,00	1,415
270,50	1,538
271,00	1,043
271,50	0,786
272,00	1,096
272,50	1,189
273,00	0,792
273,50	0,828
274,00	1,406
274,50	1,134
275,00	2,053
275,50	2,424
276,00	2,608
276,50	2,657
277,00	2,638
277,50	2,470
278,00	2,198
278,50	1,676
279,00	0,993
279,50	0,877
280,00	0,954
280,50	0,573
281,00	0,138
281,50	0,311
282,00	0,061
282,50	-0,185
283,00	0,202
283,50	0,204
284,00	0,205
284,50	0,194
285,00	0,233
285,50	0,258
286,00	0,285
286,50	0,274
287,00	0,274
287,50	0,275
288,00	0,274
288,50	0,277
289,00	0,273
289,50	0,277
290,00	0,277
290,50	0,279
291,00	0,282
291,50	0,282
292,00	0,282
292,50	0,280
293,00	0,277
293,50	0,275
294,00	0,272
294,50	0,268
295,00	0,265
295,50	0,261
296,00	0,260
296,50	0,258
297,00	0,257
297,50	0,257
298,00	0,257
298,50	0,258
299,00	0,258
299,50	0,258
300,00	0,259
300,50	0,258
301,00	0,258
301,50	0,257
302,00	0,256
302,50	0,255
303,00	0,254
303,50	0,253
304,00	0,252
304,50	0,252
305,00	0,251
305,50	0,251
306,00	0,250
306,50	0,250
307,00	0,249
307,50	0,249
308,00	0,248
308,50	0,248
309,00	0,247
309,50	0,247
310,00	0,246
310,50	0,246
311,00	0,245
311,50	0,244
312,00	0,243
312,50	0,242
313,00	0,241
313,50	0,241
314,00	0,240
314,50	0,240
315,00	0,239
315,50	0,239
316,00	0,238
316,50	0,238
317,00	0,238
317,50	0,237
318,00	0,237
318,50	0,236
319,00	0,236
319,50	0,235
320,00	0,235
320,50	0,234
321,00	0,234
321,50	0,233
322,00	0,233
322,50	0,232
323,00	0,232
323,50	0,231
324,00	0,231
324,50	0,231
325,00	0,230
325,50	0,230
326,00	0,229
326,50	0,229
327,00	0,229
327,50	0,229
328,00	0,228
328,50	0,228
329,00	0,228
329,50	0,227
330,00	0,227
330,50	0,226
331,00	0,226
331,50	0,226
332,00	0,226
332,50	0,225
333,00	0,225
333,50	0,225
334,00	0,224
334,50	0,224
335,00	0,224
335,50	0,224
336,00	0,223
336,50	0,223
337,00	0,223
337,50	0,222
338,00	0,222
338,50	0,222
339,00	0,222
339,50	0,222
340,00	0,222
340,50	0,222
341,00	0,222
341,50	0,222
342,00	0,222
342,50	0,221
343,00	0,221
343,50	0,221
344,00	0,221
344,50	0,220
345,00	0,220
345,50	0,220
346,00	0,220
346,50	0,220
347,00	0,220
347,50	0,219
348,00	0,219
348,50	0,219
349,00	0,219
349,50	0,219
350,00	0,219
350,50	0,219
351,00	0,219
351,50	0,219
352,00	0,219
352,50	0,219
353,00	0,219
353,50	0,219
354,00	0,219
354,50	0,218
355,00	0,218
355,50	0,218
356,00	0,218
356,50	0,218
357,00	0,218
357,50	0,217
358,00	0,217
358,50	0,217
359,00	0,217
359,50	0,217
360,00	0,217
360,50	0,217
361,00	0,217
361,50	0,217
362,00	0,216
362,50	0,216
363,00	0,216
363,50	0,216
364,00	0,216
364,50	0,215
365,00	0,215
365,50	0,215
366,00	0,215
366,50	0,215
367,00	0,214
367,50	0,214
368,00	0,214
368,50	0,214
369,00	0,214
369,50	0,213
370,00	0,213
370,50	0,213
371,00	0,213
371,50	0,213
372,00	0,212
372,50	0,212
373,00	0,212
373,50	0,212
374,00	0,212
374,50	0,212
375,00	0,212
375,50	0,212
376,00	0,212
376,50	0,211
377,00	0,211
377,50	0,211
378,00	0,211
378,50	0,210
379,00	0,210
379,50	0,210
380,00	0,209
380,50	0,209
381,00	0,209
381,50	0,209
382,00	0,208
382,50	0,208
383,00	0,208
383,50	0,208
384,00	0,208
384,50	0,207
385,00	0,207
385,50	0,207
386,00	0,207
386,50	0,206
387,00	0,206
387,50	0,206
388,00	0,206
388,50	0,205
389,00	0,205
389,50	0,205
390,00	0,205
390,50	0,205
391,00	0,204
391,50	0,204
392,00	0,204
392,50	0,204
393,00	0,203
393,50	0,203
394,00	0,203
394,50	0,203
395,00	0,202
395,50	0,202
396,00	0,202
396,50	0,202
397,00	0,202
397,50	0,201
398,00	0,201
398,50	0,201
399,00	0,201
399,50	0,201
400,00	0,200
400,50	0,200
401,00	0,200
401,50	0,200
402,00	0,200
402,50	0,199
403,00	0,199
403,50	0,199
404,00	0,199
404,50	0,199
405,00	0,198
405,50	0,198
406,00	0,198
406,50	0,198
407,00	0,198
407,50	0,198
408,00	0,197
408,50	0,197
409,00	0,197
409,50	0,197
410,00	0,197
410,50	0,197
411,00	0,196
411,50	0,196
412,00	0,196
412,50	0,196
413,00	0,196
413,50	0,196
414,00	0,195
414,50	0,195
415,00	0,195
415,50	0,195
416,00	0,195
416,50	0,195
417,00	0,195
417,50	0,195
418,00	0,195
418,50	0,195
419,00	0,195
419,50	0,194
420,00	0,194
420,50	0,194
421,00	0,194
421,50	0,194
422,00	0,194
422,50	0,194
423,00	0,194
423,50	0,193
424,00	0,193
424,50	0,193
425,00	0,193
425,50	0,193
426,00	0,193
426,50	0,193
427,00	0,193
427,50	0,193
428,00	0,193
428,50	0,193
429,00	0,193
429,50	0,193
430,00	0,193
430,50	0,193
431,00	0,193
431,50	0,193
432,00	0,193
432,50	0,193
433,00	0,193
433,50	0,193
434,00	0,193
434,50	0,193
435,00	0,193
435,50	0,193
436,00	0,193
436,50	0,193
437,00	0,193
437,50	0,193
438,00	0,193
438,50	0,193
439,00	0,193
439,50	0,193
440,00	0,193
440,50	0,193
441,00	0,193
441,50	0,193
442,00	0,193
442,50	0,193
443,00	0,193
443,50	0,193
444,00	0,193
444,50	0,193
445,00	0,193
445,50	0,193
446,00	0,194
446,50	0,194
447,00	0,194
447,50	0,194
448,00	0,194
448,50	0,194
449,00	0,194
449,50	0,194
450,00	0,194
450,50	0,194
451,00	0,195
451,50	0,195
452,00	0,195
452,50	0,195
453,00	0,195
453,50	0,196
454,00	0,196
454,50	0,196
455,00	0,196
455,50	0,197
456,00	0,197
456,50	0,197
457,00	0,197
457,50	0,197
458,00	0,198
458,50	0,198
459,00	0,198
459,50	0,198
460,00	0,199
460,50	0,199
461,00	0,199
461,50	0,200
462,00	0,200
462,50	0,200
463,00	0,201
463,50	0,201
464,00	0,202
464,50	0,202
465,00	0,202
465,50	0,203
466,00	0,203
466,50	0,204
467,00	0,204
467,50	0,205
468,00	0,205
468,50	0,206
469,00	0,206
469,50	0,207
470,00	0,207
470,50	0,208
471,00	0,208
471,50	0,209
472,00	0,210
472,50	0,210
473,00	0,211
473,50	0,211
474,00	0,212
474,50	0,213
475,00	0,213
475,50	0,214
476,00	0,215
476,50	0,216
477,00	0,217
477,50	0,217
478,00	0,218
478,50	0,219
479,00	0,220
479,50	0,221
480,00	0,222
480,50	0,223
481,00	0,224
481,50	0,225
482,00	0,226
482,50	0,227
483,00	0,228
483,50	0,229
484,00	0,230
484,50	0,231
485,00	0,232
485,50	0,234
486,00	0,235
486,50	0,236
487,00	0,237
487,50	0,239
488,00	0,240
488,50	0,241
489,00	0,243
489,50	0,244
490,00	0,246
490,50	0,247
491,00	0,249
491,50	0,250
492,00	0,252
492,50	0,254
493,00	0,255
493,50	0,257
494,00	0,259
494,50	0,260
495,00	0,262
495,50	0,264
496,00	0,265
496,50	0,267
497,00	0,269
497,50	0,271
498,00	0,272
498,50	0,274
499,00	0,276
499,50	0,278
500,00	0,280
500,50	0,281
501,00	0,283
501,50	0,285
502,00	0,287
502,50	0,288
503,00	0,290
503,50	0,292
504,00	0,293
504,50	0,295
505,00	0,297
505,50	0,298
506,00	0,300
506,50	0,302
507,00	0,303
507,50	0,305
508,00	0,306
508,50	0,307
509,00	0,309
509,50	0,310
510,00	0,311
510,50	0,313
511,00	0,314
511,50	0,315
512,00	0,316
512,50	0,317
513,00	0,318
513,50	0,319
514,00	0,320
514,50	0,321
515,00	0,322
515,50	0,322
516,00	0,323
516,50	0,323
517,00	0,324
517,50	0,324
518,00	0,325
518,50	0,325
519,00	0,325
519,50	0,325
520,00	0,325
520,50	0,325
521,00	0,324
521,50	0,324
522,00	0,324
522,50	0,323
523,00	0,323
523,50	0,322
524,00	0,321
524,50	0,320
525,00	0,320
525,50	0,319
526,00	0,317
526,50	0,316
527,00	0,315
527,50	0,314
528,00	0,312
528,50	0,311
529,00	0,310
529,50	0,308
530,00	0,307
530,50	0,305
531,00	0,303
531,50	0,301
532,00	0,300
532,50	0,298
533,00	0,296
533,50	0,294
534,00	0,291
534,50	0,289
535,00	0,287
535,50	0,285
536,00	0,283
536,50	0,281
537,00	0,278
537,50	0,276
538,00	0,274
538,50	0,271
539,00	0,269
539,50	0,266
540,00	0,264
540,50	0,261
541,00	0,258
541,50	0,256
542,00	0,253
542,50	0,250
543,00	0,248
543,50	0,245
544,00	0,243
544,50	0,240
545,00	0,237
545,50	0,235
546,00	0,232
546,50	0,230
547,00	0,227
547,50	0,224
548,00	0,222
548,50	0,219
549,00	0,217
549,50	0,214
550,00	0,212
550,50	0,209
551,00	0,206
551,50	0,204
552,00	0,201
552,50	0,199
553,00	0,196
553,50	0,194
554,00	0,192
554,50	0,189
555,00	0,187
555,50	0,185
556,00	0,182
556,50	0,180
557,00	0,178
557,50	0,175
558,00	0,173
558,50	0,171
559,00	0,169
559,50	0,167
560,00	0,165
560,50	0,162
561,00	0,160
561,50	0,158
562,00	0,156
562,50	0,154
563,00	0,152
563,50	0,150
564,00	0,148
564,50	0,146
565,00	0,144
565,50	0,142
566,00	0,140
566,50	0,139
567,00	0,137
567,50	0,135
568,00	0,133
568,50	0,131
569,00	0,130
569,50	0,128
570,00	0,126
570,50	0,125
571,00	0,123
571,50	0,122
572,00	0,120
572,50	0,119
573,00	0,117
573,50	0,116
574,00	0,115
574,50	0,113
575,00	0,112
575,50	0,111
576,00	0,109
576,50	0,108
577,00	0,107
577,50	0,105
578,00	0,104
578,50	0,103
579,00	0,102
579,50	0,100
580,00	0,099
580,50	0,098
581,00	0,097
581,50	0,096
582,00	0,095
582,50	0,094
583,00	0,093
583,50	0,092
584,00	0,090
584,50	0,089
585,00	0,088
585,50	0,087
586,00	0,086
586,50	0,085
587,00	0,084
587,50	0,083
588,00	0,083
588,50	0,082
589,00	0,081
589,50	0,080
590,00	0,079
590,50	0,078
591,00	0,077
591,50	0,076
592,00	0,076
592,50	0,075
593,00	0,074
593,50	0,073
594,00	0,072
594,50	0,072
595,00	0,071
595,50	0,070
596,00	0,069
596,50	0,069
597,00	0,068
597,50	0,068
598,00	0,067
598,50	0,066
599,00	0,066
599,50	0,065
600,00	0,064
600,50	0,064
601,00	0,063
601,50	0,062
602,00	0,062
602,50	0,061
603,00	0,061
603,50	0,060
604,00	0,060
604,50	0,059
605,00	0,059
605,50	0,058
606,00	0,058
606,50	0,057
607,00	0,057
607,50	0,056
608,00	0,056
608,50	0,055
609,00	0,055
609,50	0,054
610,00	0,054
610,50	0,053
611,00	0,053
611,50	0,052
612,00	0,052
612,50	0,051
613,00	0,051
613,50	0,050
614,00	0,050
614,50	0,050
615,00	0,049
615,50	0,049
616,00	0,049
616,50	0,048
617,00	0,048
617,50	0,048
618,00	0,047
618,50	0,047
619,00	0,046
619,50	0,046
620,00	0,046
620,50	0,045
621,00	0,045
621,50	0,045
622,00	0,044
622,50	0,044
623,00	0,044
623,50	0,043
624,00	0,043
624,50	0,043
625,00	0,042
625,50	0,042
626,00	0,042
626,50	0,041
627,00	0,041
627,50	0,041
628,00	0,041
628,50	0,040
629,00	0,040
629,50	0,040
630,00	0,040
630,50	0,039
631,00	0,039
631,50	0,039
632,00	0,039
632,50	0,038
633,00	0,038
633,50	0,038
634,00	0,038
634,50	0,037
635,00	0,037
635,50	0,037
636,00	0,037
636,50	0,036
637,00	0,036
637,50	0,036
638,00	0,036
638,50	0,035
639,00	0,035
639,50	0,035
640,00	0,035
640,50	0,034
641,00	0,034
641,50	0,034
642,00	0,034
642,50	0,034
643,00	0,034
643,50	0,033
644,00	0,033
644,50	0,033
645,00	0,033
645,50	0,033
646,00	0,032
646,50	0,032
647,00	0,032
647,50	0,032
648,00	0,032
648,50	0,031
649,00	0,031
649,50	0,031
650,00	0,031
650,50	0,031
651,00	0,031
651,50	0,031
652,00	0,030
652,50	0,030
653,00	0,030
653,50	0,030
654,00	0,030
654,50	0,030
655,00	0,029
655,50	0,029
656,00	0,029
656,50	0,029
657,00	0,029
657,50	0,029
658,00	0,029
658,50	0,028
659,00	0,028
659,50	0,028
660,00	0,028
660,50	0,028
661,00	0,028
661,50	0,028
662,00	0,028
662,50	0,027
663,00	0,027
663,50	0,027
664,00	0,027
664,50	0,027
665,00	0,027
665,50	0,027
666,00	0,026
666,50	0,026
667,00	0,026
667,50	0,026
668,00	0,026
668,50	0,026
669,00	0,026
669,50	0,026
670,00	0,026
670,50	0,025
671,00	0,025
671,50	0,025
672,00	0,025
672,50	0,025
673,00	0,025
673,50	0,025
674,00	0,025
674,50	0,025
675,00	0,025
675,50	0,024
676,00	0,024
676,50	0,024
677,00	0,024
677,50	0,024
678,00	0,024
678,50	0,024
679,00	0,024
679,50	0,024
680,00	0,024
680,50	0,024
681,00	0,024
681,50	0,023
682,00	0,023
682,50	0,023
683,00	0,023
683,50	0,023
684,00	0,023
684,50	0,023
685,00	0,023
685,50	0,023
686,00	0,023
686,50	0,023
687,00	0,022
687,50	0,022
688,00	0,022
688,50	0,022
689,00	0,022
689,50	0,022
690,00	0,022
690,50	0,022
691,00	0,022
691,50	0,022
692,00	0,022
692,50	0,022
693,00	0,022
693,50	0,021
694,00	0,021
694,50	0,021
695,00	0,021
695,50	0,021
696,00	0,021
696,50	0,021
697,00	0,021
697,50	0,021
698,00	0,021
698,50	0,021
699,00	0,021
699,50	0,021
700,00	0,021
700,50	0,021
701,00	0,020
701,50	0,020
702,00	0,020
702,50	0,020
703,00	0,020
703,50	0,020
704,00	0,020
704,50	0,020
705,00	0,020
705,50	0,020
706,00	0,020
706,50	0,020
707,00	0,019
707,50	0,019
708,00	0,019
708,50	0,019
709,00	0,019
709,50	0,019
710,00	0,019
710,50	0,019
711,00	0,019
711,50	0,019
712,00	0,019
712,50	0,019
713,00	0,019
713,50	0,019
714,00	0,019
714,50	0,019
715,00	0,019
715,50	0,019
716,00	0,018
716,50	0,018
717,00	0,018
717,50	0,018
718,00	0,018
718,50	0,018
719,00	0,018
719,50	0,018
720,00	0,018
720,50	0,018
721,00	0,018
721,50	0,018
722,00	0,018
722,50	0,018
723,00	0,018
723,50	0,018
724,00	0,017
724,50	0,017
725,00	0,017
725,50	0,017
726,00	0,017
726,50	0,017
727,00	0,017
727,50	0,017
728,00	0,017
728,50	0,017
729,00	0,017
729,50	0,017
730,00	0,017
730,50	0,017
731,00	0,017
731,50	0,017
732,00	0,017
732,50	0,017
733,00	0,017
733,50	0,016
734,00	0,016
734,50	0,016
735,00	0,016
735,50	0,016
736,00	0,016
736,50	0,016
737,00	0,016
737,50	0,016
738,00	0,016
738,50	0,016
739,00	0,016
739,50	0,016
740,00	0,016
740,50	0,016
741,00	0,016
741,50	0,015
742,00	0,015
742,50	0,015
743,00	0,015
743,50	0,015
744,00	0,015
744,50	0,015
745,00	0,015
745,50	0,015
746,00	0,015
746,50	0,015
747,00	0,015
747,50	0,015
748,00	0,015
748,50	0,015
749,00	0,015
749,50	0,015
750,00	0,015
750,50	0,015
751,00	0,015
751,50	0,015
752,00	0,015
752,50	0,015
753,00	0,015
753,50	0,015
754,00	0,015
754,50	0,015
755,00	0,014
755,50	0,014
756,00	0,014
756,50	0,014
757,00	0,014
757,50	0,014
758,00	0,014
758,50	0,014
759,00	0,014
759,50	0,014
760,00	0,014
760,50	0,014
761,00	0,014
761,50	0,014
762,00	0,014
762,50	0,014
763,00	0,014
763,50	0,014
764,00	0,014
764,50	0,014
765,00	0,014
765,50	0,014
766,00	0,014
766,50	0,014
767,00	0,014
767,50	0,014
768,00	0,013
768,50	0,013
769,00	0,013
769,50	0,013
770,00	0,013
770,50	0,013
771,00	0,013
771,50	0,013
772,00	0,013
772,50	0,013
773,00	0,013
773,50	0,013
774,00	0,013
774,50	0,013
775,00	0,013
775,50	0,013
776,00	0,012
776,50	0,012
777,00	0,012
777,50	0,012
778,00	0,012
778,50	0,012
779,00	0,012
779,50	0,012
780,00	0,012
780,50	0,012
781,00	0,012
781,50	0,012
782,00	0,012
782,50	0,012
783,00	0,012
783,50	0,012
784,00	0,012
784,50	0,012
785,00	0,012
785,50	0,012
786,00	0,012
786,50	0,012
787,00	0,012
787,50	0,012
788,00	0,012
788,50	0,012
789,00	0,012
789,50	0,011
790,00	0,011
790,50	0,011
791,00	0,011
791,50	0,011
792,00	0,011
792,50	0,011
793,00	0,011
793,50	0,011
794,00	0,011
794,50	0,011
795,00	0,011
795,50	0,011
796,00	0,011
796,50	0,011
797,00	0,011
797,50	0,011
798,00	0,011
798,50	0,011
799,00	0,011
799,50	0,011
800,00	0,011