File: Espectro Uv-Vis/citrato/1.00/1.1.txt
"1 - Dataset 195837"
"Wavelength nm."	"Abs."
200,00	2,380
200,50	2,380
201,00	2,380
201,50	2,380
202,00	2,380
202,50	2,380
203,00	2,380
203,50	2,380
204,00	2,380
204,50	2,061
205,00	2,294
205,50	2,249
206,00	2,048
206,50	1,218
207,00	1,612
207,50	2,050
208,00	1,596
208,50	2,314
209,00	1,946
209,50	2,168
210,00	1,562
210,50	1,819
211,00	2,133
211,50	2,840
212,00	2,858
212,50	2,494
213,00	2,862
213,50	3,250
214,00	3,407
214,50	3,277
215,00	3,623
215,50	3,321
216,00	2,773
216,50	2,730
217,00	2,083
217,50	1,975
218,00	1,247
218,50	0,659
219,00	0,931
219,50	0,693
220,00	-0,058
220,50	-0,047
221,00	0,379
221,50	0,615
222,00	1,060
222,50	1,034
223,00	1,600
223,50	1,626
224,00	2,201
224,50	2,588
225,00	2,700
225,50	2,668
226,00	2,466
226,50	2,100
227,00	2,285
227,50	1,987
228,00	1,474
228,50	1,480
229,00	0,987
229,50	0,028
230,00	0,318
230,50	0,100
231,00	0,437
231,50	-0,023
232,00	0,768
232,50	0,993
233,00	1,173
233,50	1,348
234,00	1,524
234,50	1,556
235,00	1,518
235,50	1,385
236,00	1,242
236,50	0,983
237,00	0,639
237,50	-0,099
238,00	0,420
238,50	0,332
239,00	0,462
239,50	0,419
240,00	0,508
240,50	0,829
241,00	0,736
241,50	1,208
242,00	1,611
242,50	1,829
243,00	1,924
243,50	1,547
244,00	1,846
244,50	1,482
245,00	1,595
245,50	1,621
246,00	2,115
246,50	2,067
247,00	2,171
247,50	1,855
248,00	1,270
248,50	1,484
249,00	1,234
249,50	1,513
250,00	0,993
250,50	1,039
251,00	0,847
251,50	0,530
252,00	0,924
252,50	0,191
253,00	0,756
253,50	0,978
254,00	0,983
254,50	0,975
255,00	1,006
255,50	0,895
256,00	0,717
256,50	0,649
257,00	0,479
257,50	0,247
258,00	-0,021
258,50	0,353
259,00	-0,184
259,50	-0,397
260,00	-0,005
260,50	0,077
261,00	0,832
261,50	1,198
262,00	1,302
262,50	1,586
263,00	1,740
263,50	1,296
264,00	1,091
264,50	1,434
265,00	1,622
265,50	1,774
266,00	1,669
266,50	1,349
267,00	0,971
267,50	1,149
268,00	1,552
268,50	1,511
269,00	1,302
269,50	1,192
270,00	0,997
270,50	0,782
271,00	0,380
271,50	-0,178
272,00	-0,135
272,50	0,279
273,00	0,185
273,50	-0,149
274,00	0,008
274,50	0,175
275,00	0,398
275,50	0,540
276,00	0,633
276,50	0,695
277,00	0,709
277,50	0,846
278,00	0,817
278,50	0,704
279,00	0,630
279,50	0,457
280,00	0,295
280,50	0,174
281,00	-0,059
281,50	-0,247
282,00	0,203
282,50	0,264
283,00	0,308
283,50	0,333
284,00	0,334
284,50	0,348
285,00	0,347
285,50	0,356
286,00	0,286
286,50	0,263
287,00	0,265
287,50	0,259
288,00	0,261
288,50	0,259
289,00	0,271
289,50	0,278
290,00	0,280
290,50	0,281
291,00	0,279
291,50	0,277
292,00	0,272
292,50	0,264
293,00	0,256
293,50	0,249
294,00	0,242
294,50	0,237
295,00	0,234
295,50	0,236
296,00	0,239
296,50	0,244
297,00	0,248
297,50	0,251
298,00	0,253
298,50	0,254
299,00	0,256
299,50	0,256
300,00	0,256
300,50	0,256
301,00	0,256
301,50	0,255
302,00	0,255
302,50	0,255
303,00	0,254
303,50	0,253
304,00	0,253
304,50	0,253
305,00	0,252
305,50	0,251
306,00	0,251
306,50	0,250
307,00	0,250
307,50	0,249
308,00	0,249
308,50	0,248
309,00	0,247
309,50	0,246
310,00	0,246
310,50	0,245
311,00	0,245
311,50	0,245
312,00	0,244
312,50	0,244
313,00	0,243
313,50	0,243
314,00	0,242
314,50	0,242
315,00	0,241
315,50	0,240
316,00	0,239
316,50	0,238
317,00	0,238
317,50	0,237
318,00	0,237
318,50	0,236
319,00	0,236
319,50	0,236
320,00	0,235
320,50	0,235
321,00	0,235
321,50	0,234
322,00	0,234
322,50	0,233
323,00	0,233
323,50	0,232
324,00	0,232
324,50	0,231
325,00	0,231
325,50	0,230
326,00	0,230
326,50	0,229
327,00	0,229
327,50	0,228
328,00	0,228
328,50	0,228
329,00	0,227
329,50	0,227
330,00	0,226
330,50	0,226
331,00	0,226
331,50	0,225
332,00	0,225
332,50	0,225
333,00	0,224
333,50	0,224
334,00	0,224
334,50	0,224
335,00	0,224
335,50	0,223
336,00	0,223
336,50	0,223
337,00	0,223
337,50	0,223
338,00	0,222
338,50	0,222
339,00	0,222
339,50	0,221
340,00	0,221
340,50	0,221
341,00	0,221
341,50	0,221
342,00	0,221
342,50	0,220
343,00	0,220
343,50	0,220
344,00	0,219
344,50	0,219
345,00	0,219
345,50	0,219
346,00	0,218
346,50	0,218
347,00	0,218
347,50	0,218
348,00	0,218
348,50	0,218
349,00	0,218
349,50	0,218
350,00	0,218
350,50	0,218
351,00	0,218
351,50	0,217
352,00	0,217
352,50	0,217
353,00	0,217
353,50	0,217
354,00	0,217
354,50	0,216
355,00	0,216
355,50	0,216
356,00	0,216
356,50	0,216
357,00	0,216
357,50	0,215
358,00	0,215
358,50	0,215
359,00	0,215
359,50	0,215
360,00	0,214
360,50	0,214
361,00	0,214
361,50	0,214
362,00	0,214
362,50	0,213
363,00	0,213
363,50	0,213
364,00	0,213
364,50	0,212
365,00	0,212
365,50	0,212
366,00	0,212
366,50	0,211
367,00	0,211
367,50	0,211
368,00	0,210
368,50	0,210
369,00	0,210
369,50	0,210
370,00	0,209
370,50	0,209
371,00	0,209
371,50	0,209
372,00	0,209
372,50	0,209
373,00	0,208
373,50	0,208
374,00	0,208
374,50	0,208
375,00	0,208
375,50	0,207
376,00	0,207
376,50	0,207
377,00	0,207
377,50	0,207
378,00	0,206
378,50	0,206
379,00	0,206
379,50	0,206
380,00	0,205
380,50	0,205
381,00	0,205
381,50	0,204
382,00	0,204
382,50	0,204
383,00	0,203
383,50	0,203
384,00	0,203
384,50	0,203
385,00	0,203
385,50	0,202
386,00	0,202
386,50	0,202
387,00	0,202
387,50	0,201
388,00	0,201
388,50	0,201
389,00	0,201
389,50	0,200
390,00	0,200
390,50	0,200
391,00	0,200
391,50	0,200
392,00	0,199
392,50	0,199
393,00	0,199
393,50	0,199
394,00	0,198
394,50	0,198
395,00	0,198
395,50	0,198
396,00	0,197
396,50	0,197
397,00	0,197
397,50	0,197
398,00	0,197
398,50	0,196
399,00	0,196
399,50	0,196
400,00	0,196
400,50	0,195
401,00	0,195
401,50	0,195
402,00	0,195
402,50	0,194
403,00	0,194
403,50	0,194
404,00	0,194
404,50	0,194
405,00	0,194
405,50	0,193
406,00	0,193
406,50	0,193
407,00	0,193
407,50	0,193
408,00	0,193
408,50	0,192
409,00	0,192
409,50	0,192
410,00	0,192
410,50	0,192
411,00	0,192
411,50	0,191
412,00	0,191
412,50	0,191
413,00	0,191
413,50	0,191
414,00	0,191
414,50	0,190
415,00	0,190
415,50	0,190
416,00	0,190
416,50	0,190
417,00	0,190
417,50	0,190
418,00	0,190
418,50	0,190
419,00	0,190
419,50	0,190
420,00	0,189
420,50	0,189
421,00	0,189
421,50	0,189
422,00	0,189
422,50	0,189
423,00	0,189
423,50	0,189
424,00	0,189
424,50	0,188
425,00	0,188
425,50	0,188
426,00	0,188
426,50	0,188
427,00	0,188
427,50	0,188
428,00	0,188
428,50	0,188
429,00	0,188
429,50	0,188
430,00	0,188
430,50	0,188
431,00	0,188
431,50	0,188
432,00	0,188
432,50	0,188
433,00	0,188
433,50	0,188
434,00	0,188
434,50	0,188
435,00	0,188
435,50	0,188
436,00	0,188
436,50	0,188
437,00	0,188
437,50	0,188
438,00	0,188
438,50	0,188
439,00	0,188
439,50	0,188
440,00	0,188
440,50	0,188
441,00	0,188
441,50	0,188
442,00	0,188
442,50	0,188
443,00	0,188
443,50	0,188
444,00	0,188
444,50	0,188
445,00	0,188
445,50	0,188
446,00	0,189
446,50	0,189
447,00	0,189
447,50	0,189
448,00	0,189
448,50	0,189
449,00	0,189
449,50	0,189
450,00	0,190
450,50	0,190
451,00	0,190
451,50	0,190
452,00	0,190
452,50	0,190
453,00	0,191
453,50	0,191
454,00	0,191
454,50	0,191
455,00	0,191
455,50	0,192
456,00	0,192
456,50	0,192
457,00	0,192
457,50	0,192
458,00	0,193
458,50	0,193
459,00	0,193
459,50	0,194
460,00	0,194
460,50	0,194
461,00	0,195
461,50	0,195
462,00	0,195
462,50	0,196
463,00	0,196
463,50	0,196
464,00	0,197
464,50	0,197
465,00	0,198
465,50	0,198
466,00	0,198
466,50	0,199
467,00	0,199
467,50	0,200
468,00	0,200
468,50	0,201
469,00	0,201
469,50	0,202
470,00	0,202
470,50	0,203
471,00	0,203
471,50	0,204
472,00	0,205
472,50	0,205
473,00	0,206
473,50	0,206
474,00	0,207
474,50	0,208
475,00	0,208
475,50	0,209
476,00	0,210
476,50	0,211
477,00	0,212
477,50	0,212
478,00	0,213
478,50	0,214
479,00	0,215
479,50	0,216
480,00	0,217
480,50	0,218
481,00	0,219
481,50	0,220
482,00	0,221
482,50	0,222
483,00	0,223
483,50	0,224
484,00	0,225
484,50	0,226
485,00	0,227
485,50	0,229
486,00	0,230
486,50	0,231
487,00	0,233
487,50	0,234
488,00	0,235
488,50	0,237
489,00	0,238
489,50	0,239
490,00	0,241
490,50	0,242
491,00	0,244
491,50	0,245
492,00	0,247
492,50	0,249
493,00	0,250
493,50	0,252
494,00	0,254
494,50	0,256
495,00	0,257
495,50	0,259
496,00	0,261
496,50	0,263
497,00	0,264
497,50	0,266
498,00	0,268
498,50	0,270
499,00	0,272
499,50	0,273
500,00	0,275
500,50	0,277
501,00	0,279
501,50	0,281
502,00	0,282
502,50	0,284
503,00	0,286
503,50	0,288
504,00	0,289
504,50	0,291
505,00	0,293
505,50	0,294
506,00	0,296
506,50	0,297
507,00	0,299
507,50	0,301
508,00	0,302
508,50	0,303
509,00	0,305
509,50	0,306
510,00	0,308
510,50	0,309
511,00	0,310
511,50	0,311
512,00	0,313
512,50	0,314
513,00	0,315
513,50	0,316
514,00	0,317
514,50	0,317
515,00	0,318
515,50	0,319
516,00	0,319
516,50	0,320
517,00	0,320
517,50	0,320
518,00	0,321
518,50	0,321
519,00	0,321
519,50	0,321
520,00	0,321
520,50	0,321
521,00	0,320
521,50	0,320
522,00	0,320
522,50	0,319
523,00	0,319
523,50	0,318
524,00	0,317
524,50	0,316
525,00	0,315
525,50	0,314
526,00	0,313
526,50	0,312
527,00	0,311
527,50	0,310
528,00	0,308
528,50	0,307
529,00	0,305
529,50	0,304
530,00	0,302
530,50	0,301
531,00	0,299
531,50	0,297
532,00	0,295
532,50	0,293
533,00	0,291
533,50	0,289
534,00	0,287
534,50	0,285
535,00	0,283
535,50	0,281
536,00	0,279
536,50	0,276
537,00	0,274
537,50	0,272
538,00	0,269
538,50	0,267
539,00	0,264
539,50	0,262
540,00	0,259
540,50	0,257
541,00	0,254
541,50	0,251
542,00	0,249
542,50	0,246
543,00	0,243
543,50	0,241
544,00	0,238
544,50	0,235
545,00	0,233
545,50	0,230
546,00	0,228
546,50	0,225
547,00	0,222
547,50	0,220
548,00	0,217
548,50	0,215
549,00	0,212
549,50	0,210
550,00	0,207
550,50	0,205
551,00	0,202
551,50	0,200
552,00	0,197
552,50	0,195
553,00	0,193
553,50	0,190
554,00	0,188
554,50	0,186
555,00	0,183
555,50	0,181
556,00	0,179
556,50	0,177
557,00	0,175
557,50	0,172
558,00	0,170
558,50	0,168
559,00	0,166
559,50	0,164
560,00	0,162
560,50	0,160
561,00	0,158
561,50	0,156
562,00	0,154
562,50	0,152
563,00	0,150
563,50	0,148
564,00	0,146
564,50	0,144
565,00	0,142
565,50	0,140
566,00	0,138
566,50	0,136
567,00	0,135
567,50	0,133
568,00	0,131
568,50	0,130
569,00	0,128
569,50	0,126
570,00	0,125
570,50	0,123
571,00	0,122
571,50	0,120
572,00	0,119
572,50	0,117
573,00	0,116
573,50	0,114
574,00	0,113
574,50	0,112
575,00	0,110
575,50	0,109
576,00	0,108
576,50	0,106
577,00	0,105
577,50	0,104
578,00	0,103
578,50	0,102
579,00	0,100
579,50	0,099
580,00	0,098
580,50	0,097
581,00	0,096
581,50	0,095
582,00	0,094
582,50	0,093
583,00	0,092
583,50	0,091
584,00	0,090
584,50	0,089
585,00	0,088
585,50	0,087
586,00	0,086
586,50	0,085
587,00	0,084
587,50	0,083
588,00	0,082
588,50	0,081
589,00	0,080
589,50	0,079
590,00	0,078
590,50	0,078
591,00	0,077
591,50	0,076
592,00	0,075
592,50	0,074
593,00	0,074
593,50	0,073
594,00	0,072
594,50	0,071
595,00	0,071
595,50	0,070
596,00	0,069
596,50	0,069
597,00	0,068
597,50	0,067
598,00	0,067
598,50	0,066
599,00	0,065
599,50	0,065
600,00	0,064
600,50	0,064
601,00	0,063
601,50	0,062
602,00	0,062
602,50	0,061
603,00	0,061
603,50	0,060
604,00	0,060
604,50	0,059
605,00	0,059
605,50	0,058
606,00	0,058
606,50	0,057
607,00	0,057
607,50	0,056
608,00	0,056
608,50	0,055
609,00	0,055
609,50	0,054
610,00	0,054
610,50	0,053
611,00	0,053
611,50	0,052
612,00	0,052
612,50	0,051
613,00	0,051
613,50	0,051
614,00	0,050
614,50	0,050
615,00	0,050
615,50	0,049
616,00	0,049
616,50	0,048
617,00	0,048
617,50	0,048
618,00	0,047
618,50	0,047
619,00	0,046
619,50	0,046
620,00	0,046
620,50	0,045
621,00	0,045
621,50	0,045
622,00	0,044
622,50	0,044
623,00	0,044
623,50	0,043
624,00	0,043
624,50	0,043
625,00	0,043
625,50	0,042
626,00	0,042
626,50	0,042
627,00	0,042
627,50	0,041
628,00	0,041
628,50	0,041
629,00	0,041
629,50	0,040
630,00	0,040
630,50	0,040
631,00	0,039
631,50	0,039
632,00	0,039
632,50	0,039
633,00	0,038
633,50	0,038
634,00	0,038
634,50	0,038
635,00	0,037
635,50	0,037
636,00	0,037
636,50	0,037
637,00	0,037
637,50	0,036
638,00	0,036
638,50	0,036
639,00	0,036
639,50	0,035
640,00	0,035
640,50	0,035
641,00	0,035
641,50	0,035
642,00	0,034
642,50	0,034
643,00	0,034
643,50	0,034
644,00	0,034
644,50	0,033
645,00	0,033
645,50	0,033
646,00	0,033
646,50	0,033
647,00	0,033
647,50	0,032
648,00	0,032
648,50	0,032
649,00	0,032
649,50	0,032
650,00	0,031
650,50	0,031
651,00	0,031
651,50	0,031
652,00	0,031
652,50	0,031
653,00	0,031
653,50	0,030
654,00	0,030
654,50	0,030
655,00	0,030
655,50	0,030
656,00	0,030
656,50	0,030
657,00	0,030
657,50	0,029
658,00	0,029
658,50	0,029
659,00	0,029
659,50	0,029
660,00	0,029
660,50	0,029
661,00	0,028
661,50	0,028
662,00	0,028
662,50	0,028
663,00	0,028
663,50	0,028
664,00	0,028
664,50	0,027
665,00	0,027
665,50	0,027
666,00	0,027
666,50	0,027
667,00	0,027
667,50	0,027
668,00	0,027
668,50	0,027
669,00	0,027
669,50	0,026
670,00	0,026
670,50	0,026
671,00	0,026
671,50	0,026
672,00	0,026
672,50	0,026
673,00	0,026
673,50	0,026
674,00	0,026
674,50	0,026
675,00	0,025
675,50	0,025
676,00	0,025
676,50	0,025
677,00	0,025
677,50	0,025
678,00	0,025
678,50	0,025
679,00	0,025
679,50	0,024
680,00	0,024
680,50	0,024
681,00	0,024
681,50	0,024
682,00	0,024
682,50	0,024
683,00	0,024
683,50	0,024
684,00	0,024
684,50	0,024
685,00	0,024
685,50	0,024
686,00	0,024
686,50	0,023
687,00	0,023
687,50	0,023
688,00	0,023
688,50	0,023
689,00	0,023
689,50	0,023
690,00	0,023
690,50	0,023
691,00	0,023
691,50	0,023
692,00	0,023
692,50	0,023
693,00	0,023
693,50	0,022
694,00	0,022
694,50	0,022
695,00	0,022
695,50	0,022
696,00	0,022
696,50	0,022
697,00	0,022
697,50	0,022
698,00	0,022
698,50	0,022
699,00	0,022
699,50	0,022
700,00	0,022
700,50	0,022
701,00	0,022
701,50	0,022
702,00	0,022
702,50	0,022
703,00	0,022
703,50	0,021
704,00	0,021
704,50	0,021
705,00	0,021
705,50	0,021
706,00	0,021
706,50	0,021
707,00	0,021
707,50	0,021
708,00	0,021
708,50	0,020
709,00	0,020
709,50	0,021
710,00	0,020
710,50	0,020
711,00	0,020
711,50	0,020
712,00	0,020
712,50	0,020
713,00	0,020
713,50	0,020
714,00	0,020
714,50	0,020
715,00	0,020
715,50	0,020
716,00	0,020
716,50	0,019
717,00	0,019
717,50	0,019
718,00	0,019
718,50	0,019
719,00	0,019
719,50	0,019
720,00	0,019
720,50	0,019
721,00	0,019
721,50	0,019
722,00	0,019
722,50	0,019
723,00	0,019
723,50	0,019
724,00	0,019
724,50	0,019
725,00	0,019
725,50	0,019
726,00	0,018
726,50	0,018
727,00	0,018
727,50	0,018
728,00	0,018
728,50	0,018
729,00	0,018
729,50	0,018
730,00	0,018
730,50	0,018
731,00	0,018
731,50	0,018
732,00	0,018
732,50	0,018
733,00	0,018
733,50	0,018
734,00	0,018
734,50	0,018
735,00	0,018
735,50	0,017
736,00	0,017
736,50	0,017
737,00	0,017
737,50	0,017
738,00	0,017
738,50	0,017
739,00	0,017
739,50	0,017
740,00	0,017
740,50	0,017
741,00	0,017
741,50	0,017
742,00	0,017
742,50	0,017
743,00	0,017
743,50	0,017
744,00	0,017
744,50	0,017
745,00	0,017
745,50	0,017
746,00	0,017
746,50	0,017
747,00	0,017
747,50	0,017
748,00	0,017
748,50	0,017
749,00	0,017
749,50	0,016
750,00	0,016
750,50	0,016
751,00	0,016
751,50	0,016
752,00	0,016
752,50	0,016
753,00	0,016
753,50	0,016
754,00	0,016
754,50	0,016
755,00	0,016
755,50	0,016
756,00	0,016
756,50	0,016
757,00	0,016
757,50	0,016
758,00	0,016
758,50	0,016
759,00	0,016
759,50	0,016
760,00	0,016
760,50	0,016
761,00	0,016
761,50	0,016
762,00	0,016
762,50	0,016
763,00	0,016
763,50	0,015
764,00	0,015
764,50	0,015
765,00	0,015
765,50	0,015
766,00	0,015
766,50	0,015
767,00	0,015
767,50	0,015
768,00	0,015
768,50	0,015
769,00	0,015
769,50	0,015
770,00	0,015
770,50	0,015
771,00	0,015
771,50	0,015
772,00	0,015
772,50	0,015
773,00	0,015
773,50	0,015
774,00	0,015
774,50	0,015
775,00	0,015
775,50	0,015
776,00	0,015
776,50	0,015
777,00	0,015
777,50	0,014
778,00	0,014
778,50	0,014
779,00	0,014
779,50	0,014
780,00	0,014
780,50	0,014
781,00	0,014
781,50	0,014
782,00	0,015
782,50	0,014
783,00	0,014
783,50	0,014
784,00	0,014
784,50	0,014
785,00	0,014
785,50	0,014
786,00	0,014
786,50	0,014
787,00	0,014
787,50	0,014
788,00	0,014
788,50	0,014
789,00	0,014
789,50	0,014
790,00	0,014
790,50	0,014
791,00	0,014
791,50	0,014
792,00	0,014
792,50	0,014
793,00	0,014
793,50	0,014
794,00	0,014
794,50	0,014
795,00	0,014
795,50	0,014
796,00	0,014
796,50	0,014
797,00	0,014
797,50	0,014
798,00	0,014
798,50	0,014
799,00	0,014
799,50	0,014
800,00	0,014