File: Lambda max, Extincion max y Area/pH/1ml e-1M (pH=3.6)/1_e-1M - copia.txt
"1_e-1M - Dataset 190611"
"Wavelength nm."	"Abs."
200,00	2,334
200,50	2,334
201,00	2,334
201,50	2,334
202,00	2,334
202,50	2,334
203,00	2,334
203,50	2,334
204,00	2,334
204,50	2,518
205,00	2,528
205,50	2,376
206,00	2,088
206,50	1,113
207,00	0,954
207,50	0,501
208,00	0,815
208,50	1,992
209,00	2,461
209,50	2,553
210,00	2,615
210,50	3,045
211,00	2,542
211,50	2,517
212,00	2,438
212,50	2,372
213,00	2,380
213,50	2,180
214,00	1,827
214,50	1,155
215,00	0,995
215,50	0,584
216,00	1,023
216,50	1,654
217,00	1,593
217,50	1,099
218,00	1,316
218,50	1,142
219,00	0,911
219,50	1,289
220,00	1,146
220,50	0,817
221,00	0,813
221,50	0,666
222,00	1,071
222,50	1,286
223,00	1,376
223,50	1,260
224,00	1,659
224,50	1,603
225,00	1,094
225,50	1,142
226,00	1,369
226,50	1,264
227,00	1,746
227,50	2,030
228,00	1,683
228,50	1,828
229,00	1,968
229,50	2,412
230,00	2,990
230,50	2,996
231,00	2,818
231,50	2,392
232,00	1,524
232,50	0,872
233,00	0,712
233,50	1,009
234,00	0,781
234,50	1,053
235,00	1,082
235,50	0,866
236,00	1,218
236,50	1,676
237,00	2,321
237,50	2,674
238,00	2,494
238,50	2,784
239,00	2,818
239,50	2,665
240,00	2,245
240,50	1,970
241,00	2,474
241,50	2,472
242,00	2,289
242,50	1,900
243,00	1,234
243,50	1,101
244,00	1,103
244,50	0,658
245,00	0,872
245,50	0,554
246,00	0,164
246,50	0,408
247,00	0,172
247,50	-0,365
248,00	-0,719
248,50	-0,277
249,00	0,561
249,50	0,968
250,00	1,256
250,50	1,427
251,00	1,498
251,50	1,577
252,00	1,127
252,50	0,950
253,00	1,304
253,50	1,417
254,00	1,084
254,50	1,281
255,00	1,231
255,50	1,217
256,00	1,638
256,50	2,278
257,00	2,166
257,50	2,041
258,00	1,780
258,50	1,557
259,00	1,151
259,50	0,272
260,00	-0,160
260,50	0,061
261,00	0,437
261,50	0,080
262,00	0,294
262,50	1,087
263,00	1,320
263,50	1,551
264,00	1,763
264,50	1,831
265,00	1,739
265,50	1,213
266,00	1,263
266,50	0,890
267,00	0,962
267,50	0,915
268,00	1,308
268,50	1,297
269,00	1,184
269,50	1,004
270,00	1,507
270,50	1,085
271,00	0,859
271,50	0,838
272,00	1,399
272,50	1,694
273,00	1,813
273,50	1,734
274,00	2,228
274,50	1,812
275,00	2,614
275,50	2,763
276,00	2,698
276,50	2,540
277,00	2,234
277,50	1,764
278,00	1,310
278,50	0,536
279,00	0,355
279,50	0,361
280,00	0,601
280,50	0,489
281,00	0,315
281,50	0,158
282,00	-0,009
282,50	-0,233
283,00	0,211
283,50	0,225
284,00	0,215
284,50	0,227
285,00	0,244
285,50	0,265
286,00	0,293
286,50	0,276
287,00	0,286
287,50	0,278
288,00	0,280
288,50	0,290
289,00	0,291
289,50	0,297
290,00	0,302
290,50	0,303
291,00	0,302
291,50	0,297
292,00	0,293
292,50	0,288
293,00	0,281
293,50	0,277
294,00	0,273
294,50	0,271
295,00	0,270
295,50	0,272
296,00	0,276
296,50	0,279
297,00	0,282
297,50	0,285
298,00	0,287
298,50	0,288
299,00	0,289
299,50	0,290
300,00	0,291
300,50	0,290
301,00	0,290
301,50	0,290
302,00	0,289
302,50	0,289
303,00	0,288
303,50	0,287
304,00	0,286
304,50	0,286
305,00	0,285
305,50	0,285
306,00	0,284
306,50	0,283
307,00	0,283
307,50	0,282
308,00	0,282
308,50	0,282
309,00	0,281
309,50	0,281
310,00	0,280
310,50	0,279
311,00	0,278
311,50	0,278
312,00	0,277
312,50	0,276
313,00	0,275
313,50	0,274
314,00	0,274
314,50	0,273
315,00	0,272
315,50	0,272
316,00	0,271
316,50	0,270
317,00	0,270
317,50	0,269
318,00	0,268
318,50	0,268
319,00	0,267
319,50	0,267
320,00	0,266
320,50	0,265
321,00	0,265
321,50	0,264
322,00	0,263
322,50	0,262
323,00	0,262
323,50	0,261
324,00	0,260
324,50	0,260
325,00	0,259
325,50	0,258
326,00	0,258
326,50	0,257
327,00	0,257
327,50	0,256
328,00	0,256
328,50	0,255
329,00	0,254
329,50	0,254
330,00	0,253
330,50	0,253
331,00	0,252
331,50	0,252
332,00	0,251
332,50	0,251
333,00	0,250
333,50	0,250
334,00	0,249
334,50	0,249
335,00	0,248
335,50	0,247
336,00	0,247
336,50	0,247
337,00	0,246
337,50	0,246
338,00	0,245
338,50	0,245
339,00	0,245
339,50	0,245
340,00	0,244
340,50	0,244
341,00	0,243
341,50	0,243
342,00	0,243
342,50	0,242
343,00	0,242
343,50	0,242
344,00	0,242
344,50	0,241
345,00	0,241
345,50	0,241
346,00	0,240
346,50	0,240
347,00	0,240
347,50	0,240
348,00	0,240
348,50	0,240
349,00	0,240
349,50	0,240
350,00	0,240
350,50	0,240
351,00	0,240
351,50	0,239
352,00	0,239
352,50	0,239
353,00	0,239
353,50	0,239
354,00	0,239
354,50	0,239
355,00	0,239
355,50	0,238
356,00	0,238
356,50	0,238
357,00	0,238
357,50	0,238
358,00	0,238
358,50	0,237
359,00	0,237
359,50	0,237
360,00	0,237
360,50	0,237
361,00	0,237
361,50	0,237
362,00	0,237
362,50	0,237
363,00	0,237
363,50	0,237
364,00	0,237
364,50	0,236
365,00	0,236
365,50	0,236
366,00	0,236
366,50	0,235
367,00	0,235
367,50	0,235
368,00	0,235
368,50	0,234
369,00	0,234
369,50	0,234
370,00	0,234
370,50	0,234
371,00	0,234
371,50	0,234
372,00	0,234
372,50	0,233
373,00	0,233
373,50	0,233
374,00	0,233
374,50	0,233
375,00	0,233
375,50	0,233
376,00	0,233
376,50	0,233
377,00	0,233
377,50	0,233
378,00	0,232
378,50	0,232
379,00	0,232
379,50	0,231
380,00	0,231
380,50	0,231
381,00	0,231
381,50	0,230
382,00	0,230
382,50	0,230
383,00	0,230
383,50	0,229
384,00	0,229
384,50	0,229
385,00	0,229
385,50	0,229
386,00	0,228
386,50	0,228
387,00	0,228
387,50	0,228
388,00	0,227
388,50	0,227
389,00	0,227
389,50	0,226
390,00	0,226
390,50	0,226
391,00	0,226
391,50	0,226
392,00	0,225
392,50	0,225
393,00	0,225
393,50	0,225
394,00	0,224
394,50	0,224
395,00	0,224
395,50	0,224
396,00	0,224
396,50	0,223
397,00	0,223
397,50	0,223
398,00	0,223
398,50	0,222
399,00	0,222
399,50	0,222
400,00	0,222
400,50	0,221
401,00	0,221
401,50	0,221
402,00	0,221
402,50	0,220
403,00	0,220
403,50	0,220
404,00	0,220
404,50	0,219
405,00	0,219
405,50	0,219
406,00	0,219
406,50	0,219
407,00	0,219
407,50	0,218
408,00	0,218
408,50	0,218
409,00	0,218
409,50	0,218
410,00	0,217
410,50	0,217
411,00	0,217
411,50	0,216
412,00	0,216
412,50	0,216
413,00	0,216
413,50	0,216
414,00	0,215
414,50	0,215
415,00	0,215
415,50	0,215
416,00	0,215
416,50	0,215
417,00	0,214
417,50	0,214
418,00	0,214
418,50	0,214
419,00	0,214
419,50	0,214
420,00	0,213
420,50	0,213
421,00	0,213
421,50	0,213
422,00	0,213
422,50	0,212
423,00	0,212
423,50	0,212
424,00	0,212
424,50	0,212
425,00	0,211
425,50	0,211
426,00	0,211
426,50	0,211
427,00	0,211
427,50	0,210
428,00	0,210
428,50	0,210
429,00	0,210
429,50	0,210
430,00	0,210
430,50	0,210
431,00	0,210
431,50	0,210
432,00	0,209
432,50	0,209
433,00	0,209
433,50	0,209
434,00	0,209
434,50	0,209
435,00	0,209
435,50	0,208
436,00	0,208
436,50	0,208
437,00	0,208
437,50	0,208
438,00	0,208
438,50	0,208
439,00	0,207
439,50	0,207
440,00	0,207
440,50	0,207
441,00	0,207
441,50	0,207
442,00	0,207
442,50	0,207
443,00	0,207
443,50	0,207
444,00	0,207
444,50	0,206
445,00	0,206
445,50	0,206
446,00	0,206
446,50	0,206
447,00	0,206
447,50	0,206
448,00	0,206
448,50	0,206
449,00	0,206
449,50	0,206
450,00	0,205
450,50	0,205
451,00	0,205
451,50	0,205
452,00	0,205
452,50	0,205
453,00	0,205
453,50	0,205
454,00	0,205
454,50	0,205
455,00	0,205
455,50	0,205
456,00	0,205
456,50	0,205
457,00	0,205
457,50	0,206
458,00	0,206
458,50	0,206
459,00	0,206
459,50	0,206
460,00	0,206
460,50	0,206
461,00	0,206
461,50	0,206
462,00	0,206
462,50	0,206
463,00	0,206
463,50	0,206
464,00	0,206
464,50	0,207
465,00	0,207
465,50	0,207
466,00	0,207
466,50	0,207
467,00	0,207
467,50	0,207
468,00	0,208
468,50	0,208
469,00	0,208
469,50	0,208
470,00	0,208
470,50	0,208
471,00	0,209
471,50	0,209
472,00	0,209
472,50	0,209
473,00	0,209
473,50	0,210
474,00	0,210
474,50	0,210
475,00	0,211
475,50	0,211
476,00	0,211
476,50	0,212
477,00	0,212
477,50	0,213
478,00	0,213
478,50	0,213
479,00	0,214
479,50	0,214
480,00	0,215
480,50	0,215
481,00	0,216
481,50	0,217
482,00	0,217
482,50	0,218
483,00	0,218
483,50	0,219
484,00	0,220
484,50	0,221
485,00	0,222
485,50	0,222
486,00	0,223
486,50	0,224
487,00	0,225
487,50	0,226
488,00	0,227
488,50	0,228
489,00	0,229
489,50	0,230
490,00	0,231
490,50	0,233
491,00	0,234
491,50	0,235
492,00	0,236
492,50	0,238
493,00	0,239
493,50	0,240
494,00	0,242
494,50	0,243
495,00	0,244
495,50	0,246
496,00	0,247
496,50	0,249
497,00	0,250
497,50	0,252
498,00	0,254
498,50	0,255
499,00	0,257
499,50	0,259
500,00	0,261
500,50	0,262
501,00	0,264
501,50	0,266
502,00	0,268
502,50	0,270
503,00	0,271
503,50	0,273
504,00	0,275
504,50	0,277
505,00	0,279
505,50	0,281
506,00	0,282
506,50	0,284
507,00	0,286
507,50	0,288
508,00	0,290
508,50	0,292
509,00	0,294
509,50	0,296
510,00	0,298
510,50	0,300
511,00	0,301
511,50	0,303
512,00	0,305
512,50	0,307
513,00	0,309
513,50	0,311
514,00	0,313
514,50	0,314
515,00	0,316
515,50	0,318
516,00	0,320
516,50	0,321
517,00	0,323
517,50	0,325
518,00	0,326
518,50	0,328
519,00	0,329
519,50	0,331
520,00	0,332
520,50	0,334
521,00	0,335
521,50	0,336
522,00	0,338
522,50	0,339
523,00	0,340
523,50	0,341
524,00	0,342
524,50	0,343
525,00	0,344
525,50	0,345
526,00	0,345
526,50	0,346
527,00	0,347
527,50	0,348
528,00	0,348
528,50	0,349
529,00	0,349
529,50	0,350
530,00	0,350
530,50	0,351
531,00	0,351
531,50	0,351
532,00	0,351
532,50	0,352
533,00	0,352
533,50	0,352
534,00	0,352
534,50	0,352
535,00	0,352
535,50	0,352
536,00	0,351
536,50	0,351
537,00	0,351
537,50	0,351
538,00	0,350
538,50	0,350
539,00	0,350
539,50	0,349
540,00	0,349
540,50	0,348
541,00	0,347
541,50	0,347
542,00	0,346
542,50	0,345
543,00	0,345
543,50	0,344
544,00	0,343
544,50	0,342
545,00	0,341
545,50	0,341
546,00	0,340
546,50	0,339
547,00	0,338
547,50	0,337
548,00	0,336
548,50	0,335
549,00	0,334
549,50	0,333
550,00	0,332
550,50	0,331
551,00	0,330
551,50	0,328
552,00	0,327
552,50	0,326
553,00	0,325
553,50	0,323
554,00	0,322
554,50	0,321
555,00	0,320
555,50	0,318
556,00	0,317
556,50	0,316
557,00	0,315
557,50	0,313
558,00	0,312
558,50	0,311
559,00	0,309
559,50	0,308
560,00	0,306
560,50	0,305
561,00	0,304
561,50	0,302
562,00	0,301
562,50	0,300
563,00	0,298
563,50	0,297
564,00	0,296
564,50	0,294
565,00	0,293
565,50	0,291
566,00	0,290
566,50	0,288
567,00	0,287
567,50	0,286
568,00	0,284
568,50	0,283
569,00	0,281
569,50	0,280
570,00	0,279
570,50	0,277
571,00	0,276
571,50	0,275
572,00	0,273
572,50	0,272
573,00	0,271
573,50	0,270
574,00	0,269
574,50	0,267
575,00	0,266
575,50	0,265
576,00	0,264
576,50	0,263
577,00	0,261
577,50	0,260
578,00	0,259
578,50	0,258
579,00	0,257
579,50	0,256
580,00	0,255
580,50	0,254
581,00	0,253
581,50	0,251
582,00	0,250
582,50	0,249
583,00	0,248
583,50	0,247
584,00	0,246
584,50	0,245
585,00	0,244
585,50	0,243
586,00	0,242
586,50	0,240
587,00	0,239
587,50	0,238
588,00	0,237
588,50	0,236
589,00	0,235
589,50	0,234
590,00	0,233
590,50	0,232
591,00	0,231
591,50	0,230
592,00	0,229
592,50	0,228
593,00	0,227
593,50	0,226
594,00	0,226
594,50	0,225
595,00	0,224
595,50	0,223
596,00	0,222
596,50	0,221
597,00	0,221
597,50	0,220
598,00	0,219
598,50	0,218
599,00	0,217
599,50	0,216
600,00	0,216
600,50	0,215
601,00	0,214
601,50	0,213
602,00	0,213
602,50	0,212
603,00	0,211
603,50	0,211
604,00	0,210
604,50	0,209
605,00	0,208
605,50	0,208
606,00	0,207
606,50	0,206
607,00	0,206
607,50	0,205
608,00	0,204
608,50	0,204
609,00	0,203
609,50	0,202
610,00	0,201
610,50	0,201
611,00	0,200
611,50	0,199
612,00	0,199
612,50	0,198
613,00	0,197
613,50	0,197
614,00	0,196
614,50	0,196
615,00	0,195
615,50	0,194
616,00	0,194
616,50	0,193
617,00	0,193
617,50	0,192
618,00	0,192
618,50	0,191
619,00	0,190
619,50	0,190
620,00	0,189
620,50	0,189
621,00	0,188
621,50	0,188
622,00	0,187
622,50	0,187
623,00	0,186
623,50	0,185
624,00	0,185
624,50	0,184
625,00	0,184
625,50	0,183
626,00	0,183
626,50	0,182
627,00	0,182
627,50	0,181
628,00	0,181
628,50	0,180
629,00	0,180
629,50	0,179
630,00	0,179
630,50	0,178
631,00	0,178
631,50	0,177
632,00	0,177
632,50	0,176
633,00	0,176
633,50	0,175
634,00	0,175
634,50	0,174
635,00	0,174
635,50	0,173
636,00	0,173
636,50	0,172
637,00	0,171
637,50	0,171
638,00	0,170
638,50	0,170
639,00	0,169
639,50	0,169
640,00	0,169
640,50	0,168
641,00	0,168
641,50	0,167
642,00	0,167
642,50	0,166
643,00	0,166
643,50	0,165
644,00	0,165
644,50	0,164
645,00	0,164
645,50	0,163
646,00	0,163
646,50	0,162
647,00	0,162
647,50	0,161
648,00	0,161
648,50	0,160
649,00	0,160
649,50	0,159
650,00	0,159
650,50	0,158
651,00	0,158
651,50	0,157
652,00	0,157
652,50	0,156
653,00	0,156
653,50	0,155
654,00	0,155
654,50	0,155
655,00	0,154
655,50	0,154
656,00	0,153
656,50	0,153
657,00	0,152
657,50	0,152
658,00	0,151
658,50	0,151
659,00	0,150
659,50	0,150
660,00	0,149
660,50	0,149
661,00	0,149
661,50	0,148
662,00	0,148
662,50	0,147
663,00	0,147
663,50	0,146
664,00	0,146
664,50	0,145
665,00	0,144
665,50	0,144
666,00	0,143
666,50	0,143
667,00	0,142
667,50	0,142
668,00	0,141
668,50	0,141
669,00	0,140
669,50	0,140
670,00	0,139
670,50	0,139
671,00	0,138
671,50	0,138
672,00	0,137
672,50	0,136
673,00	0,136
673,50	0,135
674,00	0,135
674,50	0,135
675,00	0,134
675,50	0,134
676,00	0,133
676,50	0,133
677,00	0,132
677,50	0,132
678,00	0,131
678,50	0,131
679,00	0,130
679,50	0,130
680,00	0,129
680,50	0,129
681,00	0,128
681,50	0,128
682,00	0,127
682,50	0,127
683,00	0,127
683,50	0,126
684,00	0,126
684,50	0,125
685,00	0,125
685,50	0,124
686,00	0,124
686,50	0,123
687,00	0,122
687,50	0,122
688,00	0,121
688,50	0,121
689,00	0,120
689,50	0,120
690,00	0,120
690,50	0,119
691,00	0,119
691,50	0,118
692,00	0,118
692,50	0,117
693,00	0,117
693,50	0,116
694,00	0,116
694,50	0,115
695,00	0,115
695,50	0,114
696,00	0,114
696,50	0,113
697,00	0,113
697,50	0,113
698,00	0,112
698,50	0,112
699,00	0,111
699,50	0,111
700,00	0,110
700,50	0,110
701,00	0,110
701,50	0,109
702,00	0,109
702,50	0,108
703,00	0,108
703,50	0,107
704,00	0,107
704,50	0,106
705,00	0,106
705,50	0,105
706,00	0,105
706,50	0,104
707,00	0,104
707,50	0,103
708,00	0,103
708,50	0,102
709,00	0,102
709,50	0,101
710,00	0,101
710,50	0,100
711,00	0,100
711,50	0,100
712,00	0,099
712,50	0,099
713,00	0,098
713,50	0,098
714,00	0,097
714,50	0,097
715,00	0,096
715,50	0,096
716,00	0,096
716,50	0,095
717,00	0,095
717,50	0,094
718,00	0,094
718,50	0,094
719,00	0,093
719,50	0,093
720,00	0,092
720,50	0,092
721,00	0,091
721,50	0,091
722,00	0,091
722,50	0,090
723,00	0,090
723,50	0,089
724,00	0,089
724,50	0,089
725,00	0,088
725,50	0,088
726,00	0,087
726,50	0,087
727,00	0,087
727,50	0,086
728,00	0,086
728,50	0,085
729,00	0,085
729,50	0,085
730,00	0,084
730,50	0,084
731,00	0,083
731,50	0,083
732,00	0,083
732,50	0,082
733,00	0,082
733,50	0,081
734,00	0,081
734,50	0,081
735,00	0,080
735,50	0,080
736,00	0,079
736,50	0,079
737,00	0,079
737,50	0,078
738,00	0,078
738,50	0,077
739,00	0,077
739,50	0,077
740,00	0,076
740,50	0,076
741,00	0,076
741,50	0,075
742,00	0,075
742,50	0,075
743,00	0,074
743,50	0,074
744,00	0,074
744,50	0,073
745,00	0,073
745,50	0,073
746,00	0,072
746,50	0,072
747,00	0,072
747,50	0,071
748,00	0,071
748,50	0,071
749,00	0,070
749,50	0,070
750,00	0,070
750,50	0,069
751,00	0,069
751,50	0,069
752,00	0,068
752,50	0,068
753,00	0,068
753,50	0,067
754,00	0,067
754,50	0,067
755,00	0,067
755,50	0,066
756,00	0,066
756,50	0,066
757,00	0,065
757,50	0,065
758,00	0,065
758,50	0,064
759,00	0,064
759,50	0,064
760,00	0,064
760,50	0,063
761,00	0,063
761,50	0,063
762,00	0,062
762,50	0,062
763,00	0,062
763,50	0,062
764,00	0,061
764,50	0,061
765,00	0,061
765,50	0,061
766,00	0,060
766,50	0,060
767,00	0,060
767,50	0,060
768,00	0,059
768,50	0,059
769,00	0,059
769,50	0,058
770,00	0,058
770,50	0,058
771,00	0,058
771,50	0,057
772,00	0,057
772,50	0,057
773,00	0,056
773,50	0,056
774,00	0,056
774,50	0,056
775,00	0,055
775,50	0,055
776,00	0,055
776,50	0,054
777,00	0,054
777,50	0,054
778,00	0,054
778,50	0,054
779,00	0,053
779,50	0,053
780,00	0,053
780,50	0,053
781,00	0,053
781,50	0,052
782,00	0,052
782,50	0,052
783,00	0,052
783,50	0,052
784,00	0,052
784,50	0,052
785,00	0,051
785,50	0,051
786,00	0,051
786,50	0,051
787,00	0,051
787,50	0,051
788,00	0,051
788,50	0,050
789,00	0,050
789,50	0,050
790,00	0,050
790,50	0,049
791,00	0,049
791,50	0,049
792,00	0,049
792,50	0,048
793,00	0,048
793,50	0,048
794,00	0,048
794,50	0,048
795,00	0,048
795,50	0,047
796,00	0,047
796,50	0,047
797,00	0,047
797,50	0,047
798,00	0,047
798,50	0,047
799,00	0,047
799,50	0,047
800,00	0,047