File: Lambda max, Extincion max y Area/citrato/1.00/0.9.txt
"1ml - Dataset 231633"
"Wavelength nm."	"Abs."
200,00	3,140
200,50	3,140
201,00	3,140
201,50	3,140
202,00	3,140
202,50	3,140
203,00	3,140
203,50	3,140
204,00	3,140
204,50	1,890
205,00	1,384
205,50	0,918
206,00	0,952
206,50	1,096
207,00	0,970
207,50	1,031
208,00	1,204
208,50	1,473
209,00	1,200
209,50	2,159
210,00	2,520
210,50	2,540
211,00	2,528
211,50	2,968
212,00	2,806
212,50	2,154
213,00	2,626
213,50	2,753
214,00	3,027
214,50	2,893
215,00	2,614
215,50	2,794
216,00	2,500
216,50	2,188
217,00	1,619
217,50	2,121
218,00	1,645
218,50	1,730
219,00	1,721
219,50	2,432
220,00	2,156
220,50	2,236
221,00	2,907
221,50	2,905
222,00	3,423
222,50	3,399
223,00	3,196
223,50	2,779
224,00	2,312
224,50	1,417
225,00	1,095
225,50	0,557
226,00	0,298
226,50	0,114
227,00	0,014
227,50	0,463
228,00	0,456
228,50	0,982
229,00	1,219
229,50	1,310
230,00	1,335
230,50	0,967
231,00	0,674
231,50	1,035
232,00	1,347
232,50	1,372
233,00	1,319
233,50	1,074
234,00	1,026
234,50	0,726
235,00	1,636
235,50	1,957
236,00	2,217
236,50	2,276
237,00	2,264
237,50	1,641
238,00	1,532
238,50	0,907
239,00	1,418
239,50	2,078
240,00	2,220
240,50	2,142
241,00	1,905
241,50	1,575
242,00	0,676
242,50	0,953
243,00	1,440
243,50	1,717
244,00	1,552
244,50	1,209
245,00	0,861
245,50	0,266
246,00	0,373
246,50	-0,368
247,00	-0,167
247,50	0,309
248,00	0,516
248,50	0,826
249,00	0,956
249,50	1,064
250,00	0,951
250,50	1,103
251,00	1,514
251,50	1,455
252,00	1,583
252,50	1,765
253,00	1,884
253,50	1,647
254,00	1,004
254,50	0,858
255,00	0,847
255,50	1,723
256,00	1,910
256,50	2,111
257,00	2,022
257,50	1,846
258,00	1,577
258,50	1,166
259,00	1,304
259,50	1,035
260,00	1,341
260,50	1,127
261,00	0,814
261,50	0,345
262,00	-0,075
262,50	0,108
263,00	-0,141
263,50	0,252
264,00	-0,174
264,50	-0,303
265,00	0,188
265,50	0,621
266,00	0,678
266,50	1,263
267,00	1,693
267,50	2,084
268,00	2,258
268,50	2,410
269,00	2,516
269,50	2,483
270,00	1,929
270,50	1,927
271,00	1,717
271,50	0,945
272,00	0,737
272,50	0,961
273,00	1,352
273,50	1,266
274,00	1,076
274,50	1,408
275,00	1,298
275,50	1,234
276,00	1,112
276,50	1,075
277,00	0,822
277,50	0,398
278,00	0,007
278,50	0,252
279,00	0,008
279,50	-0,251
280,00	0,165
280,50	0,152
281,00	0,160
281,50	0,155
282,00	0,145
282,50	0,123
283,00	0,156
283,50	0,207
284,00	0,237
284,50	0,255
285,00	0,198
285,50	0,164
286,00	0,205
286,50	0,209
287,00	-0,159
287,50	0,123
288,00	-0,017
288,50	0,467
289,00	0,471
289,50	1,071
290,00	1,538
290,50	1,880
291,00	2,131
291,50	2,284
292,00	2,339
292,50	2,281
293,00	2,114
293,50	1,854
294,00	1,493
294,50	1,022
295,00	0,453
295,50	0,448
296,00	0,007
296,50	0,171
297,00	-0,112
297,50	0,268
298,00	0,243
298,50	0,222
299,00	0,227
299,50	0,224
300,00	0,223
300,50	0,215
301,00	0,219
301,50	0,224
302,00	0,227
302,50	0,228
303,00	0,230
303,50	0,226
304,00	0,230
304,50	0,229
305,00	0,222
305,50	0,221
306,00	0,221
306,50	0,219
307,00	0,216
307,50	0,208
308,00	0,207
308,50	0,207
309,00	0,208
309,50	0,201
310,00	0,204
310,50	0,205
311,00	0,206
311,50	0,205
312,00	0,210
312,50	0,215
313,00	0,216
313,50	0,223
314,00	0,226
314,50	0,229
315,00	0,230
315,50	0,230
316,00	0,231
316,50	0,230
317,00	0,228
317,50	0,224
318,00	0,222
318,50	0,218
319,00	0,216
319,50	0,213
320,00	0,213
320,50	0,215
321,00	0,216
321,50	0,217
322,00	0,215
322,50	0,219
323,00	0,221
323,50	0,221
324,00	0,217
324,50	0,214
325,00	0,214
325,50	0,212
326,00	0,211
326,50	0,207
327,00	0,203
327,50	0,201
328,00	0,201
328,50	0,202
329,00	0,200
329,50	0,202
330,00	0,203
330,50	0,207
331,00	0,207
331,50	0,208
332,00	0,206
332,50	0,209
333,00	0,210
333,50	0,210
334,00	0,209
334,50	0,209
335,00	0,208
335,50	0,210
336,00	0,210
336,50	0,209
337,00	0,209
337,50	0,209
338,00	0,207
338,50	0,208
339,00	0,207
339,50	0,209
340,00	0,206
340,50	0,206
341,00	0,203
341,50	0,201
342,00	0,200
342,50	0,201
343,00	0,200
343,50	0,200
344,00	0,199
344,50	0,197
345,00	0,195
345,50	0,194
346,00	0,195
346,50	0,198
347,00	0,198
347,50	0,199
348,00	0,198
348,50	0,201
349,00	0,202
349,50	0,202
350,00	0,204
350,50	0,205
351,00	0,202
351,50	0,202
352,00	0,202
352,50	0,201
353,00	0,199
353,50	0,197
354,00	0,197
354,50	0,197
355,00	0,197
355,50	0,195
356,00	0,195
356,50	0,197
357,00	0,195
357,50	0,195
358,00	0,195
358,50	0,193
359,00	0,193
359,50	0,197
360,00	0,198
360,50	0,197
361,00	0,197
361,50	0,197
362,00	0,198
362,50	0,199
363,00	0,199
363,50	0,198
364,00	0,199
364,50	0,197
365,00	0,195
365,50	0,194
366,00	0,191
366,50	0,190
367,00	0,191
367,50	0,193
368,00	0,191
368,50	0,190
369,00	0,192
369,50	0,191
370,00	0,192
370,50	0,191
371,00	0,192
371,50	0,193
372,00	0,193
372,50	0,191
373,00	0,191
373,50	0,191
374,00	0,189
374,50	0,189
375,00	0,189
375,50	0,190
376,00	0,190
376,50	0,190
377,00	0,190
377,50	0,190
378,00	0,190
378,50	0,188
379,00	0,189
379,50	0,188
380,00	0,188
380,50	0,188
381,00	0,188
381,50	0,187
382,00	0,186
382,50	0,186
383,00	0,187
383,50	0,188
384,00	0,188
384,50	0,189
385,00	0,189
385,50	0,189
386,00	0,189
386,50	0,188
387,00	0,189
387,50	0,188
388,00	0,188
388,50	0,188
389,00	0,187
389,50	0,186
390,00	0,185
390,50	0,184
391,00	0,184
391,50	0,184
392,00	0,183
392,50	0,184
393,00	0,183
393,50	0,183
394,00	0,183
394,50	0,183
395,00	0,183
395,50	0,183
396,00	0,184
396,50	0,185
397,00	0,183
397,50	0,182
398,00	0,182
398,50	0,182
399,00	0,183
399,50	0,183
400,00	0,183
400,50	0,184
401,00	0,183
401,50	0,182
402,00	0,182
402,50	0,181
403,00	0,180
403,50	0,180
404,00	0,180
404,50	0,180
405,00	0,179
405,50	0,179
406,00	0,181
406,50	0,181
407,00	0,181
407,50	0,181
408,00	0,181
408,50	0,180
409,00	0,179
409,50	0,178
410,00	0,178
410,50	0,177
411,00	0,178
411,50	0,178
412,00	0,178
412,50	0,178
413,00	0,178
413,50	0,178
414,00	0,179
414,50	0,177
415,00	0,177
415,50	0,177
416,00	0,177
416,50	0,177
417,00	0,177
417,50	0,176
418,00	0,176
418,50	0,177
419,00	0,177
419,50	0,178
420,00	0,177
420,50	0,177
421,00	0,177
421,50	0,177
422,00	0,177
422,50	0,177
423,00	0,177
423,50	0,178
424,00	0,177
424,50	0,177
425,00	0,176
425,50	0,176
426,00	0,177
426,50	0,177
427,00	0,177
427,50	0,177
428,00	0,176
428,50	0,176
429,00	0,177
429,50	0,176
430,00	0,177
430,50	0,176
431,00	0,176
431,50	0,176
432,00	0,176
432,50	0,175
433,00	0,176
433,50	0,177
434,00	0,177
434,50	0,177
435,00	0,177
435,50	0,177
436,00	0,177
436,50	0,176
437,00	0,176
437,50	0,176
438,00	0,176
438,50	0,175
439,00	0,176
439,50	0,176
440,00	0,176
440,50	0,176
441,00	0,177
441,50	0,179
442,00	0,179
442,50	0,180
443,00	0,180
443,50	0,180
444,00	0,181
444,50	0,180
445,00	0,180
445,50	0,180
446,00	0,180
446,50	0,180
447,00	0,179
447,50	0,178
448,00	0,177
448,50	0,177
449,00	0,177
449,50	0,178
450,00	0,177
450,50	0,177
451,00	0,178
451,50	0,179
452,00	0,181
452,50	0,182
453,00	0,184
453,50	0,185
454,00	0,186
454,50	0,186
455,00	0,187
455,50	0,188
456,00	0,187
456,50	0,187
457,00	0,186
457,50	0,185
458,00	0,185
458,50	0,184
459,00	0,184
459,50	0,184
460,00	0,184
460,50	0,184
461,00	0,184
461,50	0,184
462,00	0,185
462,50	0,186
463,00	0,187
463,50	0,187
464,00	0,188
464,50	0,189
465,00	0,189
465,50	0,190
466,00	0,191
466,50	0,191
467,00	0,192
467,50	0,193
468,00	0,194
468,50	0,194
469,00	0,195
469,50	0,196
470,00	0,196
470,50	0,197
471,00	0,198
471,50	0,198
472,00	0,199
472,50	0,200
473,00	0,201
473,50	0,202
474,00	0,202
474,50	0,203
475,00	0,203
475,50	0,205
476,00	0,205
476,50	0,205
477,00	0,206
477,50	0,207
478,00	0,207
478,50	0,208
479,00	0,209
479,50	0,211
480,00	0,211
480,50	0,213
481,00	0,214
481,50	0,215
482,00	0,216
482,50	0,216
483,00	0,217
483,50	0,218
484,00	0,219
484,50	0,220
485,00	0,221
485,50	0,222
486,00	0,223
486,50	0,224
487,00	0,225
487,50	0,227
488,00	0,228
488,50	0,229
489,00	0,231
489,50	0,232
490,00	0,234
490,50	0,236
491,00	0,239
491,50	0,240
492,00	0,242
492,50	0,245
493,00	0,246
493,50	0,247
494,00	0,249
494,50	0,250
495,00	0,252
495,50	0,254
496,00	0,255
496,50	0,257
497,00	0,259
497,50	0,262
498,00	0,265
498,50	0,267
499,00	0,268
499,50	0,270
500,00	0,273
500,50	0,274
501,00	0,275
501,50	0,276
502,00	0,277
502,50	0,278
503,00	0,280
503,50	0,282
504,00	0,283
504,50	0,285
505,00	0,289
505,50	0,291
506,00	0,294
506,50	0,295
507,00	0,297
507,50	0,299
508,00	0,301
508,50	0,302
509,00	0,303
509,50	0,303
510,00	0,304
510,50	0,305
511,00	0,306
511,50	0,306
512,00	0,306
512,50	0,307
513,00	0,309
513,50	0,309
514,00	0,310
514,50	0,310
515,00	0,311
515,50	0,312
516,00	0,312
516,50	0,314
517,00	0,315
517,50	0,317
518,00	0,318
518,50	0,318
519,00	0,317
519,50	0,318
520,00	0,319
520,50	0,318
521,00	0,317
521,50	0,316
522,00	0,315
522,50	0,315
523,00	0,314
523,50	0,313
524,00	0,313
524,50	0,313
525,00	0,313
525,50	0,312
526,00	0,311
526,50	0,311
527,00	0,309
527,50	0,309
528,00	0,308
528,50	0,306
529,00	0,305
529,50	0,303
530,00	0,301
530,50	0,300
531,00	0,297
531,50	0,295
532,00	0,293
532,50	0,291
533,00	0,290
533,50	0,287
534,00	0,285
534,50	0,283
535,00	0,281
535,50	0,278
536,00	0,277
536,50	0,274
537,00	0,272
537,50	0,269
538,00	0,266
538,50	0,263
539,00	0,260
539,50	0,257
540,00	0,254
540,50	0,252
541,00	0,250
541,50	0,246
542,00	0,244
542,50	0,241
543,00	0,238
543,50	0,236
544,00	0,234
544,50	0,231
545,00	0,228
545,50	0,225
546,00	0,222
546,50	0,219
547,00	0,217
547,50	0,214
548,00	0,212
548,50	0,209
549,00	0,207
549,50	0,204
550,00	0,201
550,50	0,200
551,00	0,198
551,50	0,196
552,00	0,194
552,50	0,192
553,00	0,190
553,50	0,188
554,00	0,186
554,50	0,184
555,00	0,181
555,50	0,179
556,00	0,176
556,50	0,173
557,00	0,170
557,50	0,167
558,00	0,164
558,50	0,163
559,00	0,161
559,50	0,158
560,00	0,156
560,50	0,154
561,00	0,153
561,50	0,151
562,00	0,149
562,50	0,146
563,00	0,144
563,50	0,143
564,00	0,140
564,50	0,138
565,00	0,136
565,50	0,135
566,00	0,133
566,50	0,131
567,00	0,129
567,50	0,127
568,00	0,125
568,50	0,123
569,00	0,121
569,50	0,119
570,00	0,117
570,50	0,115
571,00	0,114
571,50	0,112
572,00	0,111
572,50	0,110
573,00	0,108
573,50	0,107
574,00	0,106
574,50	0,104
575,00	0,103
575,50	0,101
576,00	0,100
576,50	0,098
577,00	0,097
577,50	0,096
578,00	0,096
578,50	0,094
579,00	0,093
579,50	0,092
580,00	0,090
580,50	0,089
581,00	0,089
581,50	0,087
582,00	0,087
582,50	0,085
583,00	0,083
583,50	0,082
584,00	0,080
584,50	0,080
585,00	0,079
585,50	0,078
586,00	0,077
586,50	0,076
587,00	0,075
587,50	0,074
588,00	0,073
588,50	0,072
589,00	0,072
589,50	0,071
590,00	0,070
590,50	0,068
591,00	0,067
591,50	0,067
592,00	0,065
592,50	0,065
593,00	0,064
593,50	0,062
594,00	0,061
594,50	0,060
595,00	0,060
595,50	0,059
596,00	0,059
596,50	0,059
597,00	0,059
597,50	0,058
598,00	0,058
598,50	0,058
599,00	0,057
599,50	0,056
600,00	0,055
600,50	0,054
601,00	0,053
601,50	0,052
602,00	0,051
602,50	0,050
603,00	0,051
603,50	0,049
604,00	0,049
604,50	0,048
605,00	0,048
605,50	0,047
606,00	0,047
606,50	0,047
607,00	0,046
607,50	0,046
608,00	0,046
608,50	0,046
609,00	0,046
609,50	0,046
610,00	0,045
610,50	0,044
611,00	0,042
611,50	0,041
612,00	0,040
612,50	0,039
613,00	0,038
613,50	0,038
614,00	0,038
614,50	0,038
615,00	0,038
615,50	0,038
616,00	0,038
616,50	0,038
617,00	0,038
617,50	0,037
618,00	0,036
618,50	0,036
619,00	0,035
619,50	0,035
620,00	0,034
620,50	0,033
621,00	0,032
621,50	0,032
622,00	0,032
622,50	0,032
623,00	0,031
623,50	0,032
624,00	0,032
624,50	0,032
625,00	0,032
625,50	0,032
626,00	0,033
626,50	0,033
627,00	0,033
627,50	0,032
628,00	0,032
628,50	0,031
629,00	0,030
629,50	0,030
630,00	0,029
630,50	0,029
631,00	0,029
631,50	0,029
632,00	0,028
632,50	0,028
633,00	0,027
633,50	0,027
634,00	0,027
634,50	0,028
635,00	0,027
635,50	0,026
636,00	0,026
636,50	0,025
637,00	0,024
637,50	0,024
638,00	0,024
638,50	0,023
639,00	0,023
639,50	0,023
640,00	0,023
640,50	0,022
641,00	0,022
641,50	0,022
642,00	0,022
642,50	0,022
643,00	0,022
643,50	0,022
644,00	0,023
644,50	0,023
645,00	0,023
645,50	0,023
646,00	0,023
646,50	0,022
647,00	0,022
647,50	0,022
648,00	0,022
648,50	0,022
649,00	0,021
649,50	0,021
650,00	0,020
650,50	0,020
651,00	0,020
651,50	0,019
652,00	0,020
652,50	0,019
653,00	0,020
653,50	0,020
654,00	0,019
654,50	0,019
655,00	0,019
655,50	0,018
656,00	0,019
656,50	0,018
657,00	0,018
657,50	0,018
658,00	0,018
658,50	0,018
659,00	0,017
659,50	0,017
660,00	0,017
660,50	0,016
661,00	0,016
661,50	0,016
662,00	0,015
662,50	0,015
663,00	0,015
663,50	0,015
664,00	0,015
664,50	0,015
665,00	0,015
665,50	0,015
666,00	0,015
666,50	0,015
667,00	0,016
667,50	0,016
668,00	0,015
668,50	0,014
669,00	0,014
669,50	0,015
670,00	0,015
670,50	0,016
671,00	0,016
671,50	0,016
672,00	0,016
672,50	0,017
673,00	0,016
673,50	0,017
674,00	0,017
674,50	0,016
675,00	0,016
675,50	0,015
676,00	0,013
676,50	0,012
677,00	0,012
677,50	0,013
678,00	0,013
678,50	0,013
679,00	0,012
679,50	0,012
680,00	0,013
680,50	0,013
681,00	0,013
681,50	0,014
682,00	0,013
682,50	0,013
683,00	0,013
683,50	0,012
684,00	0,012
684,50	0,013
685,00	0,013
685,50	0,013
686,00	0,013
686,50	0,013
687,00	0,012
687,50	0,013
688,00	0,012
688,50	0,012
689,00	0,012
689,50	0,013
690,00	0,014
690,50	0,014
691,00	0,014
691,50	0,014
692,00	0,013
692,50	0,012
693,00	0,012
693,50	0,012
694,00	0,011
694,50	0,011
695,00	0,010
695,50	0,010
696,00	0,009
696,50	0,009
697,00	0,010
697,50	0,010
698,00	0,011
698,50	0,012
699,00	0,011
699,50	0,011
700,00	0,011
700,50	0,010
701,00	0,010
701,50	0,010
702,00	0,009
702,50	0,008
703,00	0,009
703,50	0,008
704,00	0,009
704,50	0,008
705,00	0,010
705,50	0,011
706,00	0,012
706,50	0,013
707,00	0,013
707,50	0,014
708,00	0,012
708,50	0,011
709,00	0,011
709,50	0,010
710,00	0,008
710,50	0,007
711,00	0,008
711,50	0,008
712,00	0,008
712,50	0,008
713,00	0,009
713,50	0,008
714,00	0,009
714,50	0,010
715,00	0,009
715,50	0,010
716,00	0,009
716,50	0,009
717,00	0,009
717,50	0,010
718,00	0,009
718,50	0,009
719,00	0,010
719,50	0,009
720,00	0,009
720,50	0,009
721,00	0,008
721,50	0,008
722,00	0,008
722,50	0,008
723,00	0,007
723,50	0,007
724,00	0,007
724,50	0,008
725,00	0,007
725,50	0,007
726,00	0,006
726,50	0,006
727,00	0,006
727,50	0,006
728,00	0,007
728,50	0,007
729,00	0,007
729,50	0,007
730,00	0,006
730,50	0,006
731,00	0,006
731,50	0,007
732,00	0,008
732,50	0,008
733,00	0,008
733,50	0,007
734,00	0,007
734,50	0,006
735,00	0,006
735,50	0,006
736,00	0,005
736,50	0,005
737,00	0,005
737,50	0,005
738,00	0,004
738,50	0,003
739,00	0,005
739,50	0,005
740,00	0,005
740,50	0,005
741,00	0,006
741,50	0,005
742,00	0,006
742,50	0,005
743,00	0,005
743,50	0,006
744,00	0,006
744,50	0,009
745,00	0,010
745,50	0,009
746,00	0,010
746,50	0,011
747,00	0,011
747,50	0,011
748,00	0,010
748,50	0,009
749,00	0,008
749,50	0,008
750,00	0,007
750,50	0,005
751,00	0,005
751,50	0,006
752,00	0,007
752,50	0,008
753,00	0,008
753,50	0,008
754,00	0,011
754,50	0,011
755,00	0,011
755,50	0,011
756,00	0,010
756,50	0,009
757,00	0,009
757,50	0,009
758,00	0,007
758,50	0,005
759,00	0,006
759,50	0,006
760,00	0,007
760,50	0,008
761,00	0,008
761,50	0,008
762,00	0,010
762,50	0,009
763,00	0,010
763,50	0,008
764,00	0,008
764,50	0,007
765,00	0,008
765,50	0,007
766,00	0,006
766,50	0,004
767,00	0,004
767,50	0,004
768,00	0,004
768,50	0,004
769,00	0,002
769,50	0,001
770,00	0,001
770,50	0,001
771,00	0,001
771,50	0,001
772,00	0,003
772,50	0,005
773,00	0,009
773,50	0,008
774,00	0,008
774,50	0,008
775,00	0,008
775,50	0,009
776,00	0,008
776,50	0,008
777,00	0,006
777,50	0,006
778,00	0,005
778,50	0,004
779,00	0,003
779,50	0,003
780,00	0,003
780,50	0,002
781,00	0,001
781,50	-0,000
782,00	-0,000
782,50	0,000
783,00	-0,000
783,50	0,001
784,00	0,002
784,50	0,003
785,00	0,002
785,50	0,004
786,00	0,005
786,50	0,006
787,00	0,007
787,50	0,009
788,00	0,007
788,50	0,007
789,00	0,006
789,50	0,006
790,00	0,006
790,50	0,005
791,00	0,004
791,50	0,004
792,00	0,004
792,50	0,003
793,00	0,002
793,50	0,004
794,00	0,005
794,50	0,006
795,00	0,008
795,50	0,010
796,00	0,007
796,50	0,007
797,00	0,007
797,50	0,007
798,00	0,007
798,50	0,007
799,00	0,007
799,50	0,007
800,00	0,007