File: Lambda max, Extincion max y Area/citrato/1.00/1.0.txt
"1mlsmoothing - Dataset 200757"
"Wavelength nm."	"Abs."
200,00	2,995
200,50	2,995
201,00	2,995
201,50	2,995
202,00	2,995
202,50	2,995
203,00	2,995
203,50	2,995
204,00	2,995
204,50	3,040
205,00	2,855
205,50	3,109
206,00	3,414
206,50	3,267
207,00	2,900
207,50	1,957
208,00	1,228
208,50	1,554
209,00	1,826
209,50	1,823
210,00	1,195
210,50	1,082
211,00	1,334
211,50	1,763
212,00	2,426
212,50	2,469
213,00	2,483
213,50	2,173
214,00	1,523
214,50	1,427
215,00	1,158
215,50	0,760
216,00	0,524
216,50	1,084
217,00	1,195
217,50	1,411
218,00	1,226
218,50	1,730
219,00	1,716
219,50	1,393
220,00	1,246
220,50	1,526
221,00	1,701
221,50	1,697
222,00	1,659
222,50	1,706
223,00	1,905
223,50	1,964
224,00	1,457
224,50	2,134
225,00	1,921
225,50	2,166
226,00	1,886
226,50	2,107
227,00	2,149
227,50	1,970
228,00	1,851
228,50	2,707
229,00	2,715
229,50	2,574
230,00	2,203
230,50	1,652
231,00	1,824
231,50	1,006
232,00	0,679
232,50	0,928
233,00	0,248
233,50	0,728
234,00	0,443
234,50	1,359
235,00	1,792
235,50	1,923
236,00	2,062
236,50	2,706
237,00	2,480
237,50	2,264
238,00	2,026
238,50	1,634
239,00	1,256
239,50	0,640
240,00	0,611
240,50	0,339
241,00	-0,268
241,50	-0,192
242,00	-0,398
242,50	-0,022
243,00	-0,018
243,50	-0,048
244,00	-0,346
244,50	-0,085
245,00	0,131
245,50	0,375
246,00	0,580
246,50	0,792
247,00	0,845
247,50	0,938
248,00	0,929
248,50	0,971
249,00	0,366
249,50	0,180
250,00	0,509
250,50	0,787
251,00	0,969
251,50	0,650
252,00	0,926
252,50	1,657
253,00	1,975
253,50	2,172
254,00	1,861
254,50	2,179
255,00	2,131
255,50	1,960
256,00	1,800
256,50	1,516
257,00	1,027
257,50	1,082
258,00	1,296
258,50	0,758
259,00	0,883
259,50	0,668
260,00	1,035
260,50	0,539
261,00	0,697
261,50	0,741
262,00	0,269
262,50	0,981
263,00	0,918
263,50	1,441
264,00	1,607
264,50	2,155
265,00	2,394
265,50	2,609
266,00	2,629
266,50	2,572
267,00	2,948
267,50	2,551
268,00	2,107
268,50	1,581
269,00	1,177
269,50	0,948
270,00	0,517
270,50	0,650
271,00	0,377
271,50	0,624
272,00	0,399
272,50	0,424
273,00	0,635
273,50	0,891
274,00	1,100
274,50	1,241
275,00	1,337
275,50	1,247
276,00	1,040
276,50	0,856
277,00	0,570
277,50	0,928
278,00	0,881
278,50	0,750
279,00	0,544
279,50	0,311
280,00	0,046
280,50	-0,262
281,00	0,079
281,50	0,048
282,00	0,100
282,50	0,124
283,00	0,192
283,50	0,101
284,00	0,079
284,50	0,131
285,00	0,164
285,50	0,202
286,00	0,226
286,50	0,218
287,00	0,206
287,50	0,219
288,00	0,223
288,50	0,216
289,00	0,217
289,50	0,217
290,00	0,212
290,50	0,211
291,00	0,210
291,50	0,208
292,00	0,207
292,50	0,207
293,00	0,207
293,50	0,209
294,00	0,211
294,50	0,215
295,00	0,217
295,50	0,222
296,00	0,228
296,50	0,233
297,00	0,235
297,50	0,236
298,00	0,237
298,50	0,236
299,00	0,236
299,50	0,236
300,00	0,235
300,50	0,233
301,00	0,232
301,50	0,232
302,00	0,231
302,50	0,230
303,00	0,230
303,50	0,229
304,00	0,229
304,50	0,228
305,00	0,228
305,50	0,227
306,00	0,227
306,50	0,226
307,00	0,226
307,50	0,226
308,00	0,225
308,50	0,225
309,00	0,224
309,50	0,224
310,00	0,223
310,50	0,223
311,00	0,222
311,50	0,222
312,00	0,222
312,50	0,221
313,00	0,220
313,50	0,219
314,00	0,219
314,50	0,218
315,00	0,218
315,50	0,217
316,00	0,217
316,50	0,216
317,00	0,216
317,50	0,216
318,00	0,215
318,50	0,215
319,00	0,214
319,50	0,214
320,00	0,213
320,50	0,213
321,00	0,212
321,50	0,212
322,00	0,211
322,50	0,211
323,00	0,210
323,50	0,210
324,00	0,210
324,50	0,209
325,00	0,209
325,50	0,209
326,00	0,209
326,50	0,208
327,00	0,208
327,50	0,208
328,00	0,208
328,50	0,207
329,00	0,207
329,50	0,207
330,00	0,206
330,50	0,206
331,00	0,205
331,50	0,205
332,00	0,205
332,50	0,204
333,00	0,204
333,50	0,204
334,00	0,204
334,50	0,203
335,00	0,203
335,50	0,203
336,00	0,203
336,50	0,203
337,00	0,202
337,50	0,202
338,00	0,202
338,50	0,202
339,00	0,201
339,50	0,201
340,00	0,201
340,50	0,201
341,00	0,201
341,50	0,201
342,00	0,201
342,50	0,201
343,00	0,201
343,50	0,201
344,00	0,201
344,50	0,200
345,00	0,200
345,50	0,200
346,00	0,200
346,50	0,200
347,00	0,200
347,50	0,200
348,00	0,200
348,50	0,200
349,00	0,199
349,50	0,199
350,00	0,199
350,50	0,199
351,00	0,199
351,50	0,199
352,00	0,199
352,50	0,198
353,00	0,198
353,50	0,198
354,00	0,198
354,50	0,198
355,00	0,197
355,50	0,197
356,00	0,197
356,50	0,197
357,00	0,197
357,50	0,197
358,00	0,197
358,50	0,197
359,00	0,197
359,50	0,197
360,00	0,196
360,50	0,196
361,00	0,196
361,50	0,196
362,00	0,196
362,50	0,195
363,00	0,195
363,50	0,195
364,00	0,195
364,50	0,194
365,00	0,194
365,50	0,194
366,00	0,194
366,50	0,194
367,00	0,193
367,50	0,193
368,00	0,193
368,50	0,192
369,00	0,192
369,50	0,192
370,00	0,192
370,50	0,192
371,00	0,192
371,50	0,192
372,00	0,192
372,50	0,191
373,00	0,191
373,50	0,191
374,00	0,191
374,50	0,191
375,00	0,190
375,50	0,190
376,00	0,190
376,50	0,189
377,00	0,189
377,50	0,189
378,00	0,189
378,50	0,188
379,00	0,188
379,50	0,188
380,00	0,188
380,50	0,188
381,00	0,188
381,50	0,188
382,00	0,187
382,50	0,187
383,00	0,187
383,50	0,186
384,00	0,186
384,50	0,186
385,00	0,185
385,50	0,185
386,00	0,185
386,50	0,185
387,00	0,184
387,50	0,184
388,00	0,184
388,50	0,184
389,00	0,184
389,50	0,183
390,00	0,183
390,50	0,183
391,00	0,183
391,50	0,183
392,00	0,182
392,50	0,182
393,00	0,182
393,50	0,182
394,00	0,181
394,50	0,181
395,00	0,181
395,50	0,181
396,00	0,180
396,50	0,180
397,00	0,180
397,50	0,180
398,00	0,180
398,50	0,180
399,00	0,179
399,50	0,179
400,00	0,179
400,50	0,179
401,00	0,178
401,50	0,178
402,00	0,178
402,50	0,178
403,00	0,178
403,50	0,177
404,00	0,177
404,50	0,177
405,00	0,177
405,50	0,177
406,00	0,177
406,50	0,177
407,00	0,176
407,50	0,176
408,00	0,176
408,50	0,176
409,00	0,176
409,50	0,176
410,00	0,175
410,50	0,175
411,00	0,175
411,50	0,175
412,00	0,175
412,50	0,175
413,00	0,174
413,50	0,174
414,00	0,174
414,50	0,174
415,00	0,174
415,50	0,174
416,00	0,174
416,50	0,174
417,00	0,174
417,50	0,174
418,00	0,174
418,50	0,174
419,00	0,174
419,50	0,173
420,00	0,173
420,50	0,173
421,00	0,173
421,50	0,173
422,00	0,173
422,50	0,173
423,00	0,173
423,50	0,173
424,00	0,173
424,50	0,173
425,00	0,173
425,50	0,173
426,00	0,173
426,50	0,172
427,00	0,172
427,50	0,172
428,00	0,172
428,50	0,172
429,00	0,172
429,50	0,172
430,00	0,172
430,50	0,172
431,00	0,172
431,50	0,172
432,00	0,172
432,50	0,172
433,00	0,172
433,50	0,172
434,00	0,172
434,50	0,172
435,00	0,172
435,50	0,172
436,00	0,172
436,50	0,172
437,00	0,173
437,50	0,173
438,00	0,173
438,50	0,173
439,00	0,173
439,50	0,173
440,00	0,173
440,50	0,173
441,00	0,173
441,50	0,173
442,00	0,173
442,50	0,173
443,00	0,173
443,50	0,173
444,00	0,173
444,50	0,173
445,00	0,174
445,50	0,174
446,00	0,174
446,50	0,174
447,00	0,174
447,50	0,174
448,00	0,175
448,50	0,175
449,00	0,175
449,50	0,175
450,00	0,175
450,50	0,175
451,00	0,175
451,50	0,175
452,00	0,176
452,50	0,176
453,00	0,176
453,50	0,176
454,00	0,176
454,50	0,177
455,00	0,177
455,50	0,177
456,00	0,178
456,50	0,178
457,00	0,178
457,50	0,178
458,00	0,179
458,50	0,179
459,00	0,179
459,50	0,179
460,00	0,180
460,50	0,180
461,00	0,180
461,50	0,181
462,00	0,181
462,50	0,182
463,00	0,182
463,50	0,182
464,00	0,183
464,50	0,183
465,00	0,184
465,50	0,184
466,00	0,185
466,50	0,185
467,00	0,186
467,50	0,186
468,00	0,187
468,50	0,187
469,00	0,188
469,50	0,188
470,00	0,189
470,50	0,189
471,00	0,190
471,50	0,191
472,00	0,191
472,50	0,192
473,00	0,193
473,50	0,193
474,00	0,194
474,50	0,195
475,00	0,196
475,50	0,196
476,00	0,197
476,50	0,198
477,00	0,199
477,50	0,199
478,00	0,200
478,50	0,201
479,00	0,202
479,50	0,203
480,00	0,204
480,50	0,205
481,00	0,206
481,50	0,207
482,00	0,208
482,50	0,209
483,00	0,210
483,50	0,211
484,00	0,213
484,50	0,214
485,00	0,215
485,50	0,216
486,00	0,218
486,50	0,219
487,00	0,220
487,50	0,221
488,00	0,223
488,50	0,224
489,00	0,226
489,50	0,227
490,00	0,229
490,50	0,230
491,00	0,232
491,50	0,233
492,00	0,235
492,50	0,237
493,00	0,238
493,50	0,240
494,00	0,242
494,50	0,243
495,00	0,245
495,50	0,247
496,00	0,249
496,50	0,250
497,00	0,252
497,50	0,254
498,00	0,256
498,50	0,257
499,00	0,259
499,50	0,261
500,00	0,263
500,50	0,265
501,00	0,267
501,50	0,268
502,00	0,270
502,50	0,272
503,00	0,274
503,50	0,275
504,00	0,277
504,50	0,279
505,00	0,280
505,50	0,282
506,00	0,283
506,50	0,285
507,00	0,286
507,50	0,288
508,00	0,289
508,50	0,291
509,00	0,292
509,50	0,293
510,00	0,295
510,50	0,296
511,00	0,297
511,50	0,298
512,00	0,300
512,50	0,301
513,00	0,302
513,50	0,302
514,00	0,303
514,50	0,304
515,00	0,305
515,50	0,305
516,00	0,306
516,50	0,306
517,00	0,307
517,50	0,307
518,00	0,307
518,50	0,307
519,00	0,307
519,50	0,307
520,00	0,307
520,50	0,307
521,00	0,307
521,50	0,306
522,00	0,306
522,50	0,305
523,00	0,305
523,50	0,304
524,00	0,303
524,50	0,303
525,00	0,302
525,50	0,301
526,00	0,300
526,50	0,298
527,00	0,297
527,50	0,296
528,00	0,294
528,50	0,293
529,00	0,292
529,50	0,290
530,00	0,288
530,50	0,287
531,00	0,285
531,50	0,283
532,00	0,282
532,50	0,280
533,00	0,278
533,50	0,276
534,00	0,274
534,50	0,271
535,00	0,269
535,50	0,267
536,00	0,265
536,50	0,263
537,00	0,260
537,50	0,258
538,00	0,256
538,50	0,253
539,00	0,251
539,50	0,248
540,00	0,246
540,50	0,243
541,00	0,240
541,50	0,238
542,00	0,235
542,50	0,232
543,00	0,230
543,50	0,227
544,00	0,225
544,50	0,222
545,00	0,219
545,50	0,217
546,00	0,214
546,50	0,211
547,00	0,209
547,50	0,206
548,00	0,204
548,50	0,201
549,00	0,199
549,50	0,196
550,00	0,193
550,50	0,191
551,00	0,188
551,50	0,186
552,00	0,183
552,50	0,181
553,00	0,178
553,50	0,176
554,00	0,174
554,50	0,171
555,00	0,169
555,50	0,166
556,00	0,164
556,50	0,162
557,00	0,159
557,50	0,157
558,00	0,155
558,50	0,153
559,00	0,150
559,50	0,148
560,00	0,146
560,50	0,144
561,00	0,142
561,50	0,140
562,00	0,138
562,50	0,136
563,00	0,134
563,50	0,132
564,00	0,130
564,50	0,128
565,00	0,126
565,50	0,124
566,00	0,122
566,50	0,120
567,00	0,118
567,50	0,116
568,00	0,115
568,50	0,113
569,00	0,111
569,50	0,109
570,00	0,108
570,50	0,106
571,00	0,104
571,50	0,103
572,00	0,101
572,50	0,100
573,00	0,099
573,50	0,097
574,00	0,096
574,50	0,094
575,00	0,093
575,50	0,092
576,00	0,090
576,50	0,089
577,00	0,088
577,50	0,086
578,00	0,085
578,50	0,084
579,00	0,083
579,50	0,082
580,00	0,080
580,50	0,079
581,00	0,078
581,50	0,077
582,00	0,076
582,50	0,075
583,00	0,074
583,50	0,073
584,00	0,072
584,50	0,071
585,00	0,070
585,50	0,069
586,00	0,068
586,50	0,067
587,00	0,066
587,50	0,065
588,00	0,064
588,50	0,063
589,00	0,062
589,50	0,061
590,00	0,060
590,50	0,059
591,00	0,058
591,50	0,057
592,00	0,057
592,50	0,056
593,00	0,055
593,50	0,054
594,00	0,053
594,50	0,053
595,00	0,052
595,50	0,051
596,00	0,050
596,50	0,050
597,00	0,049
597,50	0,048
598,00	0,048
598,50	0,047
599,00	0,046
599,50	0,046
600,00	0,045
600,50	0,045
601,00	0,044
601,50	0,043
602,00	0,043
602,50	0,042
603,00	0,042
603,50	0,041
604,00	0,041
604,50	0,040
605,00	0,039
605,50	0,039
606,00	0,038
606,50	0,038
607,00	0,037
607,50	0,037
608,00	0,036
608,50	0,036
609,00	0,035
609,50	0,035
610,00	0,034
610,50	0,034
611,00	0,034
611,50	0,033
612,00	0,033
612,50	0,032
613,00	0,032
613,50	0,031
614,00	0,031
614,50	0,031
615,00	0,030
615,50	0,030
616,00	0,029
616,50	0,029
617,00	0,029
617,50	0,028
618,00	0,028
618,50	0,028
619,00	0,027
619,50	0,027
620,00	0,027
620,50	0,026
621,00	0,026
621,50	0,026
622,00	0,025
622,50	0,025
623,00	0,025
623,50	0,024
624,00	0,024
624,50	0,024
625,00	0,023
625,50	0,023
626,00	0,023
626,50	0,023
627,00	0,022
627,50	0,022
628,00	0,022
628,50	0,021
629,00	0,021
629,50	0,021
630,00	0,021
630,50	0,020
631,00	0,020
631,50	0,020
632,00	0,020
632,50	0,020
633,00	0,019
633,50	0,019
634,00	0,019
634,50	0,018
635,00	0,018
635,50	0,018
636,00	0,018
636,50	0,017
637,00	0,017
637,50	0,017
638,00	0,017
638,50	0,016
639,00	0,016
639,50	0,016
640,00	0,016
640,50	0,016
641,00	0,015
641,50	0,015
642,00	0,015
642,50	0,015
643,00	0,015
643,50	0,015
644,00	0,014
644,50	0,014
645,00	0,014
645,50	0,014
646,00	0,014
646,50	0,014
647,00	0,013
647,50	0,013
648,00	0,013
648,50	0,013
649,00	0,013
649,50	0,013
650,00	0,012
650,50	0,012
651,00	0,012
651,50	0,012
652,00	0,012
652,50	0,012
653,00	0,012
653,50	0,011
654,00	0,011
654,50	0,011
655,00	0,011
655,50	0,011
656,00	0,010
656,50	0,010
657,00	0,010
657,50	0,010
658,00	0,010
658,50	0,010
659,00	0,010
659,50	0,010
660,00	0,009
660,50	0,009
661,00	0,009
661,50	0,009
662,00	0,009
662,50	0,009
663,00	0,009
663,50	0,009
664,00	0,009
664,50	0,009
665,00	0,008
665,50	0,008
666,00	0,008
666,50	0,008
667,00	0,008
667,50	0,008
668,00	0,008
668,50	0,008
669,00	0,008
669,50	0,008
670,00	0,008
670,50	0,008
671,00	0,008
671,50	0,008
672,00	0,008
672,50	0,008
673,00	0,008
673,50	0,007
674,00	0,007
674,50	0,007
675,00	0,007
675,50	0,007
676,00	0,007
676,50	0,007
677,00	0,007
677,50	0,006
678,00	0,006
678,50	0,006
679,00	0,006
679,50	0,006
680,00	0,006
680,50	0,006
681,00	0,006
681,50	0,006
682,00	0,006
682,50	0,006
683,00	0,006
683,50	0,006
684,00	0,006
684,50	0,005
685,00	0,005
685,50	0,005
686,00	0,005
686,50	0,005
687,00	0,005
687,50	0,005
688,00	0,005
688,50	0,005
689,00	0,005
689,50	0,005
690,00	0,005
690,50	0,005
691,00	0,005
691,50	0,005
692,00	0,005
692,50	0,004
693,00	0,004
693,50	0,004
694,00	0,004
694,50	0,004
695,00	0,004
695,50	0,004
696,00	0,004
696,50	0,004
697,00	0,004
697,50	0,004
698,00	0,004
698,50	0,004
699,00	0,004
699,50	0,004
700,00	0,004
700,50	0,004
701,00	0,004
701,50	0,004
702,00	0,004
702,50	0,004
703,00	0,004
703,50	0,004
704,00	0,004
704,50	0,003
705,00	0,003
705,50	0,003
706,00	0,003
706,50	0,003
707,00	0,003
707,50	0,003
708,00	0,003
708,50	0,003
709,00	0,003
709,50	0,003
710,00	0,003
710,50	0,003
711,00	0,003
711,50	0,003
712,00	0,003
712,50	0,003
713,00	0,003
713,50	0,003
714,00	0,003
714,50	0,002
715,00	0,002
715,50	0,002
716,00	0,002
716,50	0,002
717,00	0,002
717,50	0,002
718,00	0,002
718,50	0,002
719,00	0,002
719,50	0,002
720,00	0,002
720,50	0,002
721,00	0,002
721,50	0,002
722,00	0,002
722,50	0,002
723,00	0,002
723,50	0,002
724,00	0,002
724,50	0,002
725,00	0,002
725,50	0,002
726,00	0,002
726,50	0,002
727,00	0,002
727,50	0,002
728,00	0,002
728,50	0,002
729,00	0,002
729,50	0,002
730,00	0,002
730,50	0,001
731,00	0,001
731,50	0,001
732,00	0,001
732,50	0,001
733,00	0,001
733,50	0,001
734,00	0,001
734,50	0,001
735,00	0,001
735,50	0,001
736,00	0,001
736,50	0,001
737,00	0,001
737,50	0,001
738,00	0,001
738,50	0,001
739,00	0,001
739,50	0,001
740,00	0,001
740,50	0,001
741,00	0,001
741,50	0,001
742,00	0,001
742,50	0,001
743,00	0,001
743,50	0,001
744,00	0,001
744,50	0,001
745,00	0,001
745,50	0,001
746,00	0,001
746,50	0,001
747,00	0,001
747,50	0,001
748,00	0,001
748,50	0,000
749,00	0,000
749,50	0,000
750,00	0,000
750,50	0,000
751,00	0,000
751,50	0,000
752,00	0,000
752,50	0,000
753,00	0,001
753,50	0,001
754,00	0,000
754,50	0,000
755,00	0,000
755,50	0,000
756,00	0,000
756,50	0,000
757,00	0,000
757,50	0,000
758,00	0,000
758,50	0,000
759,00	0,000
759,50	0,000
760,00	0,000
760,50	0,000
761,00	0,000
761,50	0,000
762,00	0,000
762,50	0,000
763,00	0,000
763,50	0,000
764,00	0,000
764,50	0,000
765,00	0,000
765,50	0,000
766,00	-0,000
766,50	-0,000
767,00	-0,000
767,50	-0,000
768,00	-0,000
768,50	-0,000
769,00	-0,000
769,50	-0,000
770,00	-0,000
770,50	-0,000
771,00	-0,000
771,50	-0,000
772,00	-0,000
772,50	-0,000
773,00	-0,000
773,50	-0,000
774,00	-0,000
774,50	-0,000
775,00	-0,000
775,50	-0,000
776,00	-0,000
776,50	-0,001
777,00	-0,001
777,50	-0,001
778,00	-0,001
778,50	-0,000
779,00	-0,000
779,50	-0,000
780,00	-0,000
780,50	-0,000
781,00	-0,000
781,50	-0,000
782,00	-0,000
782,50	-0,000
783,00	-0,000
783,50	-0,000
784,00	-0,000
784,50	-0,000
785,00	-0,000
785,50	-0,000
786,00	-0,000
786,50	-0,000
787,00	0,000
787,50	0,000
788,00	0,000
788,50	0,000
789,00	0,000
789,50	0,000
790,00	0,000
790,50	0,000
791,00	0,000
791,50	0,000
792,00	-0,000
792,50	-0,000
793,00	-0,000
793,50	-0,000
794,00	-0,000
794,50	-0,000
795,00	-0,000
795,50	-0,000
796,00	-0,000
796,50	-0,000
797,00	-0,000
797,50	-0,000
798,00	-0,000
798,50	-0,000
799,00	-0,000
799,50	-0,000
800,00	-0,000