File: Lambda max, Extincion max y Area/citrato/1.40/1.39.txt
"1.4ml - Dataset 231550"
"Wavelength nm."	"Abs."
200,00	1,166
200,50	1,166
201,00	1,166
201,50	1,166
202,00	1,166
202,50	1,166
203,00	1,166
203,50	1,166
204,00	1,166
204,50	1,283
205,00	1,280
205,50	1,203
206,00	1,159
206,50	1,567
207,00	1,728
207,50	1,641
208,00	1,686
208,50	1,256
209,00	1,423
209,50	1,580
210,00	1,629
210,50	1,607
211,00	1,591
211,50	1,414
212,00	1,188
212,50	1,483
213,00	1,399
213,50	1,268
214,00	1,163
214,50	0,998
215,00	0,830
215,50	0,570
216,00	0,353
216,50	0,052
217,00	-0,053
217,50	0,195
218,00	0,297
218,50	0,469
219,00	0,647
219,50	0,715
220,00	0,429
220,50	0,711
221,00	1,036
221,50	1,260
222,00	1,474
222,50	1,569
223,00	1,595
223,50	1,601
224,00	1,482
224,50	1,243
225,00	0,853
225,50	0,723
226,00	0,753
226,50	0,395
227,00	0,201
227,50	0,177
228,00	0,692
228,50	1,759
229,00	2,327
229,50	2,506
230,00	2,790
230,50	2,952
231,00	3,040
231,50	2,995
232,00	2,720
232,50	2,199
233,00	1,594
233,50	0,495
234,00	0,193
234,50	0,034
235,00	0,340
235,50	0,782
236,00	1,474
236,50	1,653
237,00	1,664
237,50	1,495
238,00	1,520
238,50	1,499
239,00	1,047
239,50	1,156
240,00	0,712
240,50	0,780
241,00	0,801
241,50	0,781
242,00	1,138
242,50	1,719
243,00	1,762
243,50	1,931
244,00	1,794
244,50	1,541
245,00	1,335
245,50	0,908
246,00	0,469
246,50	-0,282
247,00	-0,469
247,50	-0,095
248,00	-0,511
248,50	0,341
249,00	0,761
249,50	0,806
250,00	1,283
250,50	1,696
251,00	1,632
251,50	2,176
252,00	1,930
252,50	2,367
253,00	2,671
253,50	2,659
254,00	2,451
254,50	2,138
255,00	2,327
255,50	2,049
256,00	1,539
256,50	1,221
257,00	1,078
257,50	0,822
258,00	1,043
258,50	0,805
259,00	0,468
259,50	0,664
260,00	0,440
260,50	0,788
261,00	0,697
261,50	0,589
262,00	0,166
262,50	0,027
263,00	0,473
263,50	0,828
264,00	0,893
264,50	1,012
265,00	1,617
265,50	1,469
266,00	1,478
266,50	2,079
267,00	2,408
267,50	2,579
268,00	2,544
268,50	2,422
269,00	2,164
269,50	1,814
270,00	1,300
270,50	0,955
271,00	1,450
271,50	1,452
272,00	1,267
272,50	1,070
273,00	0,738
273,50	0,457
274,00	0,669
274,50	1,070
275,00	0,993
275,50	0,918
276,00	0,778
276,50	0,690
277,00	0,460
277,50	0,195
278,00	-0,092
278,50	-0,342
279,00	0,016
279,50	0,019
280,00	0,022
280,50	0,059
281,00	0,144
281,50	0,230
282,00	0,266
282,50	0,276
283,00	0,295
283,50	0,341
284,00	0,352
284,50	0,357
285,00	0,348
285,50	0,339
286,00	0,319
286,50	0,347
287,00	0,320
287,50	0,291
288,00	0,276
288,50	0,233
289,00	0,217
289,50	0,199
290,00	0,184
290,50	0,190
291,00	0,175
291,50	0,187
292,00	0,197
292,50	0,209
293,00	0,228
293,50	0,257
294,00	0,288
294,50	0,332
295,00	0,320
295,50	0,305
296,00	0,313
296,50	0,293
297,00	0,297
297,50	0,291
298,00	0,285
298,50	0,288
299,00	0,269
299,50	0,278
300,00	0,273
300,50	0,267
301,00	0,269
301,50	0,275
302,00	0,279
302,50	0,287
303,00	0,288
303,50	0,287
304,00	0,290
304,50	0,288
305,00	0,284
305,50	0,279
306,00	0,276
306,50	0,271
307,00	0,267
307,50	0,267
308,00	0,267
308,50	0,262
309,00	0,261
309,50	0,259
310,00	0,258
310,50	0,255
311,00	0,255
311,50	0,254
312,00	0,252
312,50	0,250
313,00	0,249
313,50	0,248
314,00	0,251
314,50	0,252
315,00	0,255
315,50	0,259
316,00	0,261
316,50	0,260
317,00	0,258
317,50	0,257
318,00	0,255
318,50	0,251
319,00	0,249
319,50	0,245
320,00	0,243
320,50	0,240
321,00	0,241
321,50	0,242
322,00	0,242
322,50	0,244
323,00	0,245
323,50	0,247
324,00	0,249
324,50	0,249
325,00	0,248
325,50	0,248
326,00	0,246
326,50	0,245
327,00	0,242
327,50	0,241
328,00	0,240
328,50	0,241
329,00	0,242
329,50	0,241
330,00	0,241
330,50	0,243
331,00	0,243
331,50	0,244
332,00	0,244
332,50	0,244
333,00	0,242
333,50	0,242
334,00	0,239
334,50	0,238
335,00	0,234
335,50	0,232
336,00	0,230
336,50	0,229
337,00	0,228
337,50	0,229
338,00	0,231
338,50	0,231
339,00	0,232
339,50	0,232
340,00	0,233
340,50	0,236
341,00	0,237
341,50	0,239
342,00	0,238
342,50	0,238
343,00	0,235
343,50	0,235
344,00	0,234
344,50	0,233
345,00	0,232
345,50	0,234
346,00	0,232
346,50	0,232
347,00	0,232
347,50	0,232
348,00	0,232
348,50	0,231
349,00	0,232
349,50	0,231
350,00	0,230
350,50	0,231
351,00	0,232
351,50	0,233
352,00	0,233
352,50	0,233
353,00	0,233
353,50	0,233
354,00	0,232
354,50	0,232
355,00	0,231
355,50	0,230
356,00	0,228
356,50	0,227
357,00	0,226
357,50	0,223
358,00	0,223
358,50	0,224
359,00	0,224
359,50	0,224
360,00	0,223
360,50	0,223
361,00	0,223
361,50	0,223
362,00	0,222
362,50	0,222
363,00	0,221
363,50	0,222
364,00	0,223
364,50	0,224
365,00	0,224
365,50	0,224
366,00	0,225
366,50	0,226
367,00	0,225
367,50	0,224
368,00	0,223
368,50	0,223
369,00	0,223
369,50	0,222
370,00	0,220
370,50	0,220
371,00	0,219
371,50	0,219
372,00	0,221
372,50	0,221
373,00	0,219
373,50	0,218
374,00	0,217
374,50	0,217
375,00	0,215
375,50	0,214
376,00	0,215
376,50	0,215
377,00	0,214
377,50	0,215
378,00	0,215
378,50	0,215
379,00	0,215
379,50	0,217
380,00	0,218
380,50	0,218
381,00	0,217
381,50	0,216
382,00	0,216
382,50	0,215
383,00	0,212
383,50	0,213
384,00	0,213
384,50	0,212
385,00	0,211
385,50	0,211
386,00	0,210
386,50	0,212
387,00	0,212
387,50	0,213
388,00	0,213
388,50	0,213
389,00	0,213
389,50	0,213
390,00	0,214
390,50	0,213
391,00	0,214
391,50	0,215
392,00	0,215
392,50	0,215
393,00	0,214
393,50	0,214
394,00	0,213
394,50	0,212
395,00	0,211
395,50	0,211
396,00	0,210
396,50	0,210
397,00	0,209
397,50	0,209
398,00	0,208
398,50	0,208
399,00	0,208
399,50	0,208
400,00	0,208
400,50	0,208
401,00	0,207
401,50	0,207
402,00	0,207
402,50	0,206
403,00	0,207
403,50	0,207
404,00	0,207
404,50	0,206
405,00	0,206
405,50	0,206
406,00	0,204
406,50	0,204
407,00	0,203
407,50	0,203
408,00	0,203
408,50	0,203
409,00	0,203
409,50	0,202
410,00	0,202
410,50	0,202
411,00	0,203
411,50	0,203
412,00	0,203
412,50	0,203
413,00	0,203
413,50	0,202
414,00	0,202
414,50	0,201
415,00	0,201
415,50	0,202
416,00	0,202
416,50	0,201
417,00	0,201
417,50	0,200
418,00	0,200
418,50	0,200
419,00	0,200
419,50	0,200
420,00	0,199
420,50	0,198
421,00	0,197
421,50	0,197
422,00	0,197
422,50	0,197
423,00	0,197
423,50	0,197
424,00	0,197
424,50	0,198
425,00	0,198
425,50	0,197
426,00	0,198
426,50	0,199
427,00	0,199
427,50	0,198
428,00	0,198
428,50	0,198
429,00	0,197
429,50	0,197
430,00	0,197
430,50	0,197
431,00	0,197
431,50	0,197
432,00	0,198
432,50	0,198
433,00	0,199
433,50	0,198
434,00	0,199
434,50	0,199
435,00	0,199
435,50	0,199
436,00	0,199
436,50	0,198
437,00	0,198
437,50	0,198
438,00	0,197
438,50	0,197
439,00	0,197
439,50	0,197
440,00	0,198
440,50	0,197
441,00	0,197
441,50	0,197
442,00	0,197
442,50	0,197
443,00	0,197
443,50	0,197
444,00	0,196
444,50	0,196
445,00	0,197
445,50	0,198
446,00	0,198
446,50	0,199
447,00	0,199
447,50	0,200
448,00	0,199
448,50	0,200
449,00	0,200
449,50	0,200
450,00	0,199
450,50	0,200
451,00	0,200
451,50	0,200
452,00	0,200
452,50	0,199
453,00	0,199
453,50	0,200
454,00	0,199
454,50	0,199
455,00	0,200
455,50	0,200
456,00	0,201
456,50	0,201
457,00	0,202
457,50	0,202
458,00	0,202
458,50	0,203
459,00	0,203
459,50	0,203
460,00	0,203
460,50	0,203
461,00	0,204
461,50	0,205
462,00	0,205
462,50	0,206
463,00	0,206
463,50	0,207
464,00	0,208
464,50	0,208
465,00	0,209
465,50	0,209
466,00	0,209
466,50	0,209
467,00	0,210
467,50	0,210
468,00	0,211
468,50	0,212
469,00	0,212
469,50	0,213
470,00	0,214
470,50	0,214
471,00	0,215
471,50	0,216
472,00	0,217
472,50	0,217
473,00	0,217
473,50	0,217
474,00	0,218
474,50	0,219
475,00	0,220
475,50	0,221
476,00	0,221
476,50	0,222
477,00	0,222
477,50	0,223
478,00	0,224
478,50	0,225
479,00	0,227
479,50	0,228
480,00	0,229
480,50	0,230
481,00	0,231
481,50	0,233
482,00	0,234
482,50	0,236
483,00	0,237
483,50	0,237
484,00	0,237
484,50	0,237
485,00	0,238
485,50	0,239
486,00	0,240
486,50	0,242
487,00	0,244
487,50	0,244
488,00	0,245
488,50	0,247
489,00	0,249
489,50	0,251
490,00	0,253
490,50	0,254
491,00	0,256
491,50	0,257
492,00	0,258
492,50	0,259
493,00	0,261
493,50	0,263
494,00	0,265
494,50	0,266
495,00	0,267
495,50	0,268
496,00	0,269
496,50	0,271
497,00	0,273
497,50	0,274
498,00	0,275
498,50	0,277
499,00	0,278
499,50	0,279
500,00	0,281
500,50	0,282
501,00	0,284
501,50	0,286
502,00	0,288
502,50	0,290
503,00	0,292
503,50	0,294
504,00	0,295
504,50	0,297
505,00	0,299
505,50	0,300
506,00	0,301
506,50	0,303
507,00	0,304
507,50	0,305
508,00	0,306
508,50	0,307
509,00	0,308
509,50	0,309
510,00	0,310
510,50	0,311
511,00	0,311
511,50	0,311
512,00	0,312
512,50	0,312
513,00	0,313
513,50	0,314
514,00	0,315
514,50	0,315
515,00	0,316
515,50	0,317
516,00	0,317
516,50	0,317
517,00	0,317
517,50	0,317
518,00	0,317
518,50	0,316
519,00	0,316
519,50	0,315
520,00	0,315
520,50	0,314
521,00	0,314
521,50	0,314
522,00	0,314
522,50	0,314
523,00	0,314
523,50	0,313
524,00	0,312
524,50	0,312
525,00	0,311
525,50	0,310
526,00	0,310
526,50	0,308
527,00	0,307
527,50	0,305
528,00	0,303
528,50	0,301
529,00	0,300
529,50	0,299
530,00	0,297
530,50	0,295
531,00	0,293
531,50	0,291
532,00	0,289
532,50	0,287
533,00	0,284
533,50	0,281
534,00	0,279
534,50	0,277
535,00	0,274
535,50	0,272
536,00	0,270
536,50	0,268
537,00	0,266
537,50	0,263
538,00	0,261
538,50	0,258
539,00	0,255
539,50	0,253
540,00	0,251
540,50	0,248
541,00	0,245
541,50	0,243
542,00	0,241
542,50	0,238
543,00	0,236
543,50	0,235
544,00	0,232
544,50	0,230
545,00	0,228
545,50	0,225
546,00	0,223
546,50	0,220
547,00	0,218
547,50	0,216
548,00	0,213
548,50	0,211
549,00	0,208
549,50	0,205
550,00	0,203
550,50	0,199
551,00	0,196
551,50	0,194
552,00	0,191
552,50	0,190
553,00	0,187
553,50	0,184
554,00	0,181
554,50	0,179
555,00	0,176
555,50	0,175
556,00	0,173
556,50	0,170
557,00	0,167
557,50	0,165
558,00	0,162
558,50	0,160
559,00	0,157
559,50	0,156
560,00	0,154
560,50	0,152
561,00	0,148
561,50	0,146
562,00	0,144
562,50	0,142
563,00	0,140
563,50	0,138
564,00	0,137
564,50	0,134
565,00	0,133
565,50	0,132
566,00	0,130
566,50	0,129
567,00	0,128
567,50	0,127
568,00	0,125
568,50	0,123
569,00	0,121
569,50	0,120
570,00	0,118
570,50	0,116
571,00	0,115
571,50	0,113
572,00	0,112
572,50	0,110
573,00	0,109
573,50	0,108
574,00	0,106
574,50	0,105
575,00	0,104
575,50	0,103
576,00	0,102
576,50	0,101
577,00	0,100
577,50	0,098
578,00	0,097
578,50	0,096
579,00	0,095
579,50	0,093
580,00	0,092
580,50	0,091
581,00	0,090
581,50	0,089
582,00	0,088
582,50	0,087
583,00	0,086
583,50	0,085
584,00	0,084
584,50	0,082
585,00	0,081
585,50	0,079
586,00	0,078
586,50	0,077
587,00	0,076
587,50	0,075
588,00	0,075
588,50	0,074
589,00	0,073
589,50	0,072
590,00	0,071
590,50	0,071
591,00	0,071
591,50	0,070
592,00	0,069
592,50	0,069
593,00	0,069
593,50	0,068
594,00	0,067
594,50	0,067
595,00	0,067
595,50	0,066
596,00	0,065
596,50	0,064
597,00	0,063
597,50	0,062
598,00	0,061
598,50	0,060
599,00	0,059
599,50	0,058
600,00	0,056
600,50	0,056
601,00	0,055
601,50	0,054
602,00	0,054
602,50	0,053
603,00	0,053
603,50	0,053
604,00	0,052
604,50	0,052
605,00	0,052
605,50	0,052
606,00	0,051
606,50	0,051
607,00	0,051
607,50	0,051
608,00	0,051
608,50	0,051
609,00	0,050
609,50	0,050
610,00	0,049
610,50	0,049
611,00	0,048
611,50	0,048
612,00	0,047
612,50	0,046
613,00	0,046
613,50	0,046
614,00	0,045
614,50	0,045
615,00	0,045
615,50	0,044
616,00	0,043
616,50	0,042
617,00	0,042
617,50	0,041
618,00	0,040
618,50	0,039
619,00	0,039
619,50	0,038
620,00	0,038
620,50	0,039
621,00	0,039
621,50	0,039
622,00	0,039
622,50	0,039
623,00	0,039
623,50	0,038
624,00	0,038
624,50	0,038
625,00	0,037
625,50	0,036
626,00	0,036
626,50	0,035
627,00	0,035
627,50	0,034
628,00	0,034
628,50	0,034
629,00	0,034
629,50	0,033
630,00	0,033
630,50	0,032
631,00	0,032
631,50	0,032
632,00	0,032
632,50	0,032
633,00	0,033
633,50	0,033
634,00	0,032
634,50	0,032
635,00	0,032
635,50	0,031
636,00	0,032
636,50	0,031
637,00	0,031
637,50	0,030
638,00	0,030
638,50	0,030
639,00	0,030
639,50	0,030
640,00	0,031
640,50	0,030
641,00	0,030
641,50	0,029
642,00	0,029
642,50	0,030
643,00	0,029
643,50	0,030
644,00	0,030
644,50	0,029
645,00	0,029
645,50	0,030
646,00	0,029
646,50	0,029
647,00	0,028
647,50	0,026
648,00	0,026
648,50	0,025
649,00	0,025
649,50	0,025
650,00	0,025
650,50	0,024
651,00	0,023
651,50	0,024
652,00	0,023
652,50	0,024
653,00	0,024
653,50	0,024
654,00	0,023
654,50	0,023
655,00	0,022
655,50	0,022
656,00	0,022
656,50	0,023
657,00	0,024
657,50	0,024
658,00	0,024
658,50	0,024
659,00	0,024
659,50	0,023
660,00	0,024
660,50	0,024
661,00	0,024
661,50	0,023
662,00	0,022
662,50	0,022
663,00	0,021
663,50	0,021
664,00	0,020
664,50	0,021
665,00	0,021
665,50	0,021
666,00	0,022
666,50	0,021
667,00	0,021
667,50	0,021
668,00	0,021
668,50	0,021
669,00	0,021
669,50	0,021
670,00	0,021
670,50	0,021
671,00	0,020
671,50	0,021
672,00	0,021
672,50	0,021
673,00	0,021
673,50	0,022
674,00	0,022
674,50	0,021
675,00	0,021
675,50	0,021
676,00	0,020
676,50	0,019
677,00	0,019
677,50	0,018
678,00	0,018
678,50	0,018
679,00	0,017
679,50	0,018
680,00	0,018
680,50	0,017
681,00	0,018
681,50	0,017
682,00	0,017
682,50	0,018
683,00	0,017
683,50	0,017
684,00	0,017
684,50	0,016
685,00	0,017
685,50	0,017
686,00	0,017
686,50	0,018
687,00	0,018
687,50	0,019
688,00	0,019
688,50	0,018
689,00	0,018
689,50	0,017
690,00	0,017
690,50	0,016
691,00	0,015
691,50	0,016
692,00	0,015
692,50	0,015
693,00	0,015
693,50	0,016
694,00	0,016
694,50	0,017
695,00	0,017
695,50	0,017
696,00	0,017
696,50	0,016
697,00	0,016
697,50	0,015
698,00	0,015
698,50	0,014
699,00	0,013
699,50	0,013
700,00	0,013
700,50	0,014
701,00	0,014
701,50	0,014
702,00	0,014
702,50	0,015
703,00	0,015
703,50	0,015
704,00	0,017
704,50	0,017
705,00	0,017
705,50	0,017
706,00	0,016
706,50	0,016
707,00	0,016
707,50	0,015
708,00	0,015
708,50	0,015
709,00	0,014
709,50	0,012
710,00	0,012
710,50	0,013
711,00	0,012
711,50	0,013
712,00	0,015
712,50	0,015
713,00	0,014
713,50	0,015
714,00	0,015
714,50	0,015
715,00	0,016
715,50	0,015
716,00	0,015
716,50	0,016
717,00	0,015
717,50	0,015
718,00	0,016
718,50	0,016
719,00	0,015
719,50	0,016
720,00	0,016
720,50	0,016
721,00	0,015
721,50	0,016
722,00	0,015
722,50	0,015
723,00	0,016
723,50	0,015
724,00	0,016
724,50	0,015
725,00	0,015
725,50	0,015
726,00	0,015
726,50	0,015
727,00	0,016
727,50	0,016
728,00	0,015
728,50	0,015
729,00	0,014
729,50	0,013
730,00	0,013
730,50	0,014
731,00	0,012
731,50	0,012
732,00	0,013
732,50	0,013
733,00	0,014
733,50	0,013
734,00	0,015
734,50	0,014
735,00	0,014
735,50	0,012
736,00	0,011
736,50	0,011
737,00	0,010
737,50	0,011
738,00	0,010
738,50	0,010
739,00	0,010
739,50	0,012
740,00	0,013
740,50	0,014
741,00	0,014
741,50	0,014
742,00	0,014
742,50	0,013
743,00	0,013
743,50	0,012
744,00	0,012
744,50	0,012
745,00	0,012
745,50	0,011
746,00	0,012
746,50	0,012
747,00	0,014
747,50	0,014
748,00	0,016
748,50	0,017
749,00	0,016
749,50	0,015
750,00	0,015
750,50	0,015
751,00	0,014
751,50	0,013
752,00	0,012
752,50	0,012
753,00	0,011
753,50	0,010
754,00	0,011
754,50	0,011
755,00	0,012
755,50	0,013
756,00	0,013
756,50	0,014
757,00	0,014
757,50	0,015
758,00	0,015
758,50	0,017
759,00	0,016
759,50	0,015
760,00	0,016
760,50	0,015
761,00	0,014
761,50	0,012
762,00	0,012
762,50	0,012
763,00	0,012
763,50	0,011
764,00	0,009
764,50	0,010
765,00	0,009
765,50	0,008
766,00	0,009
766,50	0,009
767,00	0,010
767,50	0,009
768,00	0,010
768,50	0,011
769,00	0,011
769,50	0,011
770,00	0,012
770,50	0,012
771,00	0,011
771,50	0,011
772,00	0,011
772,50	0,011
773,00	0,010
773,50	0,009
774,00	0,009
774,50	0,008
775,00	0,009
775,50	0,008
776,00	0,009
776,50	0,010
777,00	0,010
777,50	0,010
778,00	0,011
778,50	0,012
779,00	0,013
779,50	0,013
780,00	0,012
780,50	0,012
781,00	0,012
781,50	0,010
782,00	0,010
782,50	0,009
783,00	0,009
783,50	0,008
784,00	0,009
784,50	0,008
785,00	0,009
785,50	0,009
786,00	0,010
786,50	0,012
787,00	0,012
787,50	0,012
788,00	0,013
788,50	0,013
789,00	0,013
789,50	0,014
790,00	0,014
790,50	0,014
791,00	0,014
791,50	0,012
792,00	0,011
792,50	0,008
793,00	0,008
793,50	0,008
794,00	0,010
794,50	0,011
795,00	0,012
795,50	0,012
796,00	0,013
796,50	0,013
797,00	0,013
797,50	0,013
798,00	0,013
798,50	0,013
799,00	0,013
799,50	0,013
800,00	0,013