File: Lambda max, Extincion max y Area/citrato/0.80/0.80.txt
"0.8 - Dataset 195425"
"Wavelength nm."	"Abs."
200,00	0,381
200,50	0,381
201,00	0,381
201,50	0,381
202,00	0,381
202,50	0,381
203,00	0,381
203,50	0,381
204,00	0,381
204,50	0,379
205,00	0,377
205,50	0,375
206,00	0,373
206,50	0,372
207,00	0,371
207,50	0,369
208,00	0,368
208,50	0,367
209,00	0,366
209,50	0,365
210,00	0,364
210,50	0,363
211,00	0,362
211,50	0,361
212,00	0,360
212,50	0,358
213,00	0,357
213,50	0,356
214,00	0,355
214,50	0,354
215,00	0,353
215,50	0,351
216,00	0,350
216,50	0,349
217,00	0,348
217,50	0,347
218,00	0,346
218,50	0,345
219,00	0,344
219,50	0,343
220,00	0,342
220,50	0,341
221,00	0,340
221,50	0,339
222,00	0,339
222,50	0,338
223,00	0,337
223,50	0,336
224,00	0,335
224,50	0,334
225,00	0,333
225,50	0,332
226,00	0,331
226,50	0,331
227,00	0,330
227,50	0,329
228,00	0,329
228,50	0,328
229,00	0,327
229,50	0,327
230,00	0,326
230,50	0,325
231,00	0,325
231,50	0,324
232,00	0,323
232,50	0,323
233,00	0,322
233,50	0,321
234,00	0,321
234,50	0,320
235,00	0,320
235,50	0,320
236,00	0,319
236,50	0,319
237,00	0,319
237,50	0,318
238,00	0,318
238,50	0,318
239,00	0,317
239,50	0,317
240,00	0,317
240,50	0,316
241,00	0,316
241,50	0,316
242,00	0,316
242,50	0,315
243,00	0,315
243,50	0,315
244,00	0,314
244,50	0,314
245,00	0,314
245,50	0,314
246,00	0,313
246,50	0,313
247,00	0,313
247,50	0,312
248,00	0,312
248,50	0,312
249,00	0,311
249,50	0,311
250,00	0,310
250,50	0,310
251,00	0,310
251,50	0,309
252,00	0,309
252,50	0,309
253,00	0,308
253,50	0,308
254,00	0,308
254,50	0,307
255,00	0,307
255,50	0,306
256,00	0,306
256,50	0,305
257,00	0,305
257,50	0,304
258,00	0,304
258,50	0,303
259,00	0,302
259,50	0,301
260,00	0,301
260,50	0,300
261,00	0,299
261,50	0,298
262,00	0,297
262,50	0,296
263,00	0,296
263,50	0,295
264,00	0,294
264,50	0,293
265,00	0,292
265,50	0,291
266,00	0,290
266,50	0,289
267,00	0,288
267,50	0,287
268,00	0,286
268,50	0,285
269,00	0,284
269,50	0,283
270,00	0,282
270,50	0,281
271,00	0,280
271,50	0,278
272,00	0,277
272,50	0,276
273,00	0,274
273,50	0,273
274,00	0,272
274,50	0,271
275,00	0,270
275,50	0,268
276,00	0,267
276,50	0,266
277,00	0,265
277,50	0,264
278,00	0,262
278,50	0,261
279,00	0,260
279,50	0,259
280,00	0,258
280,50	0,257
281,00	0,255
281,50	0,254
282,00	0,253
282,50	0,252
283,00	0,251
283,50	0,250
284,00	0,249
284,50	0,248
285,00	0,247
285,50	0,246
286,00	0,245
286,50	0,244
287,00	0,243
287,50	0,242
288,00	0,241
288,50	0,240
289,00	0,239
289,50	0,238
290,00	0,237
290,50	0,236
291,00	0,235
291,50	0,233
292,00	0,233
292,50	0,232
293,00	0,230
293,50	0,229
294,00	0,228
294,50	0,227
295,00	0,227
295,50	0,226
296,00	0,224
296,50	0,224
297,00	0,223
297,50	0,222
298,00	0,221
298,50	0,220
299,00	0,220
299,50	0,219
300,00	0,218
300,50	0,217
301,00	0,216
301,50	0,215
302,00	0,214
302,50	0,214
303,00	0,213
303,50	0,212
304,00	0,211
304,50	0,211
305,00	0,210
305,50	0,210
306,00	0,209
306,50	0,208
307,00	0,207
307,50	0,207
308,00	0,206
308,50	0,205
309,00	0,204
309,50	0,204
310,00	0,203
310,50	0,202
311,00	0,202
311,50	0,201
312,00	0,201
312,50	0,200
313,00	0,199
313,50	0,199
314,00	0,198
314,50	0,197
315,00	0,197
315,50	0,196
316,00	0,196
316,50	0,195
317,00	0,194
317,50	0,194
318,00	0,193
318,50	0,193
319,00	0,192
319,50	0,192
320,00	0,191
320,50	0,191
321,00	0,190
321,50	0,190
322,00	0,189
322,50	0,189
323,00	0,188
323,50	0,188
324,00	0,188
324,50	0,187
325,00	0,187
325,50	0,186
326,00	0,185
326,50	0,185
327,00	0,184
327,50	0,184
328,00	0,184
328,50	0,183
329,00	0,183
329,50	0,182
330,00	0,182
330,50	0,182
331,00	0,182
331,50	0,181
332,00	0,181
332,50	0,181
333,00	0,180
333,50	0,180
334,00	0,179
334,50	0,179
335,00	0,179
335,50	0,178
336,00	0,178
336,50	0,178
337,00	0,177
337,50	0,177
338,00	0,177
338,50	0,177
339,00	0,177
339,50	0,176
340,00	0,176
340,50	0,176
341,00	0,176
341,50	0,176
342,00	0,176
342,50	0,176
343,00	0,175
343,50	0,175
344,00	0,175
344,50	0,175
345,00	0,175
345,50	0,175
346,00	0,175
346,50	0,174
347,00	0,174
347,50	0,174
348,00	0,174
348,50	0,174
349,00	0,174
349,50	0,174
350,00	0,173
350,50	0,173
351,00	0,173
351,50	0,173
352,00	0,173
352,50	0,173
353,00	0,173
353,50	0,173
354,00	0,173
354,50	0,173
355,00	0,173
355,50	0,173
356,00	0,173
356,50	0,173
357,00	0,173
357,50	0,173
358,00	0,172
358,50	0,172
359,00	0,172
359,50	0,172
360,00	0,172
360,50	0,172
361,00	0,172
361,50	0,171
362,00	0,171
362,50	0,171
363,00	0,171
363,50	0,171
364,00	0,170
364,50	0,170
365,00	0,170
365,50	0,170
366,00	0,170
366,50	0,170
367,00	0,170
367,50	0,170
368,00	0,169
368,50	0,169
369,00	0,169
369,50	0,169
370,00	0,169
370,50	0,168
371,00	0,168
371,50	0,168
372,00	0,168
372,50	0,168
373,00	0,167
373,50	0,167
374,00	0,167
374,50	0,167
375,00	0,167
375,50	0,167
376,00	0,166
376,50	0,166
377,00	0,166
377,50	0,166
378,00	0,166
378,50	0,165
379,00	0,165
379,50	0,165
380,00	0,165
380,50	0,165
381,00	0,164
381,50	0,164
382,00	0,164
382,50	0,164
383,00	0,164
383,50	0,164
384,00	0,163
384,50	0,163
385,00	0,163
385,50	0,163
386,00	0,162
386,50	0,162
387,00	0,162
387,50	0,162
388,00	0,162
388,50	0,161
389,00	0,161
389,50	0,161
390,00	0,161
390,50	0,161
391,00	0,160
391,50	0,160
392,00	0,160
392,50	0,160
393,00	0,160
393,50	0,160
394,00	0,160
394,50	0,159
395,00	0,159
395,50	0,159
396,00	0,159
396,50	0,159
397,00	0,159
397,50	0,158
398,00	0,158
398,50	0,158
399,00	0,158
399,50	0,157
400,00	0,157
400,50	0,157
401,00	0,157
401,50	0,157
402,00	0,157
402,50	0,157
403,00	0,156
403,50	0,156
404,00	0,156
404,50	0,156
405,00	0,156
405,50	0,155
406,00	0,155
406,50	0,155
407,00	0,155
407,50	0,155
408,00	0,155
408,50	0,154
409,00	0,154
409,50	0,154
410,00	0,154
410,50	0,154
411,00	0,154
411,50	0,154
412,00	0,154
412,50	0,154
413,00	0,154
413,50	0,153
414,00	0,153
414,50	0,153
415,00	0,153
415,50	0,153
416,00	0,153
416,50	0,153
417,00	0,152
417,50	0,152
418,00	0,152
418,50	0,152
419,00	0,152
419,50	0,152
420,00	0,152
420,50	0,151
421,00	0,151
421,50	0,151
422,00	0,151
422,50	0,151
423,00	0,151
423,50	0,151
424,00	0,151
424,50	0,151
425,00	0,151
425,50	0,151
426,00	0,151
426,50	0,151
427,00	0,151
427,50	0,150
428,00	0,150
428,50	0,150
429,00	0,150
429,50	0,150
430,00	0,150
430,50	0,150
431,00	0,150
431,50	0,150
432,00	0,150
432,50	0,150
433,00	0,150
433,50	0,150
434,00	0,150
434,50	0,150
435,00	0,150
435,50	0,149
436,00	0,149
436,50	0,149
437,00	0,149
437,50	0,149
438,00	0,149
438,50	0,149
439,00	0,149
439,50	0,150
440,00	0,150
440,50	0,150
441,00	0,150
441,50	0,150
442,00	0,150
442,50	0,150
443,00	0,150
443,50	0,150
444,00	0,150
444,50	0,150
445,00	0,150
445,50	0,150
446,00	0,150
446,50	0,150
447,00	0,150
447,50	0,150
448,00	0,150
448,50	0,150
449,00	0,150
449,50	0,150
450,00	0,150
450,50	0,151
451,00	0,151
451,50	0,151
452,00	0,151
452,50	0,151
453,00	0,151
453,50	0,151
454,00	0,151
454,50	0,151
455,00	0,151
455,50	0,152
456,00	0,152
456,50	0,152
457,00	0,152
457,50	0,152
458,00	0,153
458,50	0,153
459,00	0,153
459,50	0,153
460,00	0,154
460,50	0,154
461,00	0,154
461,50	0,154
462,00	0,155
462,50	0,155
463,00	0,155
463,50	0,155
464,00	0,156
464,50	0,156
465,00	0,156
465,50	0,157
466,00	0,157
466,50	0,157
467,00	0,158
467,50	0,158
468,00	0,158
468,50	0,159
469,00	0,159
469,50	0,160
470,00	0,160
470,50	0,160
471,00	0,161
471,50	0,161
472,00	0,162
472,50	0,162
473,00	0,163
473,50	0,163
474,00	0,164
474,50	0,164
475,00	0,165
475,50	0,166
476,00	0,166
476,50	0,167
477,00	0,167
477,50	0,168
478,00	0,169
478,50	0,169
479,00	0,170
479,50	0,171
480,00	0,172
480,50	0,172
481,00	0,173
481,50	0,174
482,00	0,175
482,50	0,176
483,00	0,177
483,50	0,177
484,00	0,178
484,50	0,179
485,00	0,180
485,50	0,181
486,00	0,182
486,50	0,183
487,00	0,185
487,50	0,186
488,00	0,187
488,50	0,188
489,00	0,189
489,50	0,190
490,00	0,192
490,50	0,193
491,00	0,194
491,50	0,196
492,00	0,197
492,50	0,199
493,00	0,200
493,50	0,202
494,00	0,203
494,50	0,205
495,00	0,206
495,50	0,208
496,00	0,209
496,50	0,211
497,00	0,212
497,50	0,214
498,00	0,216
498,50	0,217
499,00	0,219
499,50	0,220
500,00	0,222
500,50	0,223
501,00	0,225
501,50	0,227
502,00	0,228
502,50	0,230
503,00	0,232
503,50	0,233
504,00	0,235
504,50	0,237
505,00	0,238
505,50	0,240
506,00	0,241
506,50	0,243
507,00	0,244
507,50	0,246
508,00	0,247
508,50	0,248
509,00	0,250
509,50	0,251
510,00	0,253
510,50	0,254
511,00	0,255
511,50	0,256
512,00	0,258
512,50	0,259
513,00	0,260
513,50	0,261
514,00	0,262
514,50	0,263
515,00	0,264
515,50	0,264
516,00	0,265
516,50	0,266
517,00	0,267
517,50	0,267
518,00	0,268
518,50	0,268
519,00	0,269
519,50	0,269
520,00	0,269
520,50	0,270
521,00	0,270
521,50	0,270
522,00	0,270
522,50	0,270
523,00	0,270
523,50	0,270
524,00	0,270
524,50	0,270
525,00	0,269
525,50	0,269
526,00	0,269
526,50	0,268
527,00	0,268
527,50	0,267
528,00	0,267
528,50	0,266
529,00	0,266
529,50	0,265
530,00	0,264
530,50	0,263
531,00	0,262
531,50	0,262
532,00	0,261
532,50	0,260
533,00	0,259
533,50	0,258
534,00	0,257
534,50	0,256
535,00	0,254
535,50	0,253
536,00	0,252
536,50	0,251
537,00	0,249
537,50	0,248
538,00	0,247
538,50	0,245
539,00	0,244
539,50	0,242
540,00	0,241
540,50	0,239
541,00	0,237
541,50	0,236
542,00	0,234
542,50	0,232
543,00	0,231
543,50	0,229
544,00	0,227
544,50	0,226
545,00	0,224
545,50	0,222
546,00	0,220
546,50	0,219
547,00	0,217
547,50	0,215
548,00	0,213
548,50	0,211
549,00	0,210
549,50	0,208
550,00	0,206
550,50	0,204
551,00	0,202
551,50	0,200
552,00	0,199
552,50	0,197
553,00	0,195
553,50	0,193
554,00	0,191
554,50	0,189
555,00	0,188
555,50	0,186
556,00	0,184
556,50	0,182
557,00	0,180
557,50	0,179
558,00	0,177
558,50	0,175
559,00	0,173
559,50	0,172
560,00	0,170
560,50	0,168
561,00	0,166
561,50	0,164
562,00	0,163
562,50	0,161
563,00	0,159
563,50	0,157
564,00	0,155
564,50	0,154
565,00	0,152
565,50	0,150
566,00	0,149
566,50	0,147
567,00	0,145
567,50	0,144
568,00	0,142
568,50	0,140
569,00	0,139
569,50	0,137
570,00	0,136
570,50	0,134
571,00	0,132
571,50	0,131
572,00	0,129
572,50	0,128
573,00	0,126
573,50	0,125
574,00	0,123
574,50	0,121
575,00	0,120
575,50	0,119
576,00	0,117
576,50	0,116
577,00	0,114
577,50	0,113
578,00	0,111
578,50	0,110
579,00	0,109
579,50	0,107
580,00	0,106
580,50	0,105
581,00	0,103
581,50	0,102
582,00	0,101
582,50	0,099
583,00	0,098
583,50	0,097
584,00	0,096
584,50	0,095
585,00	0,094
585,50	0,092
586,00	0,091
586,50	0,090
587,00	0,089
587,50	0,088
588,00	0,087
588,50	0,085
589,00	0,084
589,50	0,083
590,00	0,082
590,50	0,081
591,00	0,080
591,50	0,079
592,00	0,078
592,50	0,077
593,00	0,076
593,50	0,075
594,00	0,074
594,50	0,073
595,00	0,072
595,50	0,071
596,00	0,070
596,50	0,069
597,00	0,069
597,50	0,068
598,00	0,067
598,50	0,066
599,00	0,065
599,50	0,064
600,00	0,063
600,50	0,063
601,00	0,062
601,50	0,061
602,00	0,060
602,50	0,060
603,00	0,059
603,50	0,058
604,00	0,057
604,50	0,057
605,00	0,056
605,50	0,055
606,00	0,055
606,50	0,054
607,00	0,053
607,50	0,052
608,00	0,052
608,50	0,051
609,00	0,050
609,50	0,050
610,00	0,049
610,50	0,048
611,00	0,048
611,50	0,047
612,00	0,047
612,50	0,046
613,00	0,045
613,50	0,045
614,00	0,044
614,50	0,044
615,00	0,043
615,50	0,042
616,00	0,042
616,50	0,041
617,00	0,041
617,50	0,040
618,00	0,040
618,50	0,039
619,00	0,039
619,50	0,038
620,00	0,038
620,50	0,037
621,00	0,037
621,50	0,036
622,00	0,036
622,50	0,035
623,00	0,035
623,50	0,034
624,00	0,034
624,50	0,034
625,00	0,033
625,50	0,033
626,00	0,032
626,50	0,032
627,00	0,032
627,50	0,031
628,00	0,031
628,50	0,030
629,00	0,030
629,50	0,030
630,00	0,029
630,50	0,029
631,00	0,029
631,50	0,028
632,00	0,028
632,50	0,027
633,00	0,027
633,50	0,027
634,00	0,026
634,50	0,026
635,00	0,026
635,50	0,025
636,00	0,025
636,50	0,025
637,00	0,024
637,50	0,024
638,00	0,024
638,50	0,023
639,00	0,023
639,50	0,023
640,00	0,022
640,50	0,022
641,00	0,022
641,50	0,022
642,00	0,021
642,50	0,021
643,00	0,021
643,50	0,021
644,00	0,020
644,50	0,020
645,00	0,020
645,50	0,019
646,00	0,019
646,50	0,019
647,00	0,019
647,50	0,018
648,00	0,018
648,50	0,018
649,00	0,018
649,50	0,017
650,00	0,017
650,50	0,017
651,00	0,017
651,50	0,016
652,00	0,016
652,50	0,016
653,00	0,016
653,50	0,016
654,00	0,016
654,50	0,015
655,00	0,015
655,50	0,015
656,00	0,015
656,50	0,015
657,00	0,015
657,50	0,014
658,00	0,014
658,50	0,014
659,00	0,014
659,50	0,014
660,00	0,013
660,50	0,013
661,00	0,013
661,50	0,013
662,00	0,013
662,50	0,012
663,00	0,012
663,50	0,012
664,00	0,012
664,50	0,012
665,00	0,012
665,50	0,011
666,00	0,011
666,50	0,011
667,00	0,011
667,50	0,010
668,00	0,010
668,50	0,010
669,00	0,010
669,50	0,010
670,00	0,010
670,50	0,009
671,00	0,009
671,50	0,009
672,00	0,009
672,50	0,009
673,00	0,008
673,50	0,008
674,00	0,008
674,50	0,008
675,00	0,008
675,50	0,008
676,00	0,008
676,50	0,007
677,00	0,007
677,50	0,007
678,00	0,007
678,50	0,007
679,00	0,007
679,50	0,007
680,00	0,007
680,50	0,007
681,00	0,007
681,50	0,007
682,00	0,006
682,50	0,006
683,00	0,006
683,50	0,006
684,00	0,006
684,50	0,006
685,00	0,006
685,50	0,006
686,00	0,006
686,50	0,006
687,00	0,005
687,50	0,005
688,00	0,005
688,50	0,005
689,00	0,005
689,50	0,005
690,00	0,005
690,50	0,005
691,00	0,005
691,50	0,005
692,00	0,004
692,50	0,004
693,00	0,004
693,50	0,004
694,00	0,004
694,50	0,004
695,00	0,004
695,50	0,004
696,00	0,004
696,50	0,004
697,00	0,004
697,50	0,004
698,00	0,004
698,50	0,004
699,00	0,003
699,50	0,003
700,00	0,003
700,50	0,003
701,00	0,003
701,50	0,003
702,00	0,003
702,50	0,003
703,00	0,003
703,50	0,003
704,00	0,003
704,50	0,003
705,00	0,003
705,50	0,003
706,00	0,003
706,50	0,003
707,00	0,003
707,50	0,003
708,00	0,003
708,50	0,002
709,00	0,002
709,50	0,002
710,00	0,002
710,50	0,002
711,00	0,002
711,50	0,002
712,00	0,002
712,50	0,002
713,00	0,002
713,50	0,002
714,00	0,002
714,50	0,002
715,00	0,002
715,50	0,002
716,00	0,001
716,50	0,001
717,00	0,001
717,50	0,001
718,00	0,001
718,50	0,001
719,00	0,001
719,50	0,001
720,00	0,001
720,50	0,001
721,00	0,001
721,50	0,001
722,00	0,001
722,50	0,001
723,00	0,001
723,50	0,001
724,00	0,001
724,50	0,001
725,00	0,001
725,50	0,001
726,00	0,001
726,50	0,001
727,00	0,000
727,50	0,000
728,00	0,000
728,50	0,000
729,00	0,000
729,50	0,000
730,00	0,000
730,50	-0,000
731,00	-0,000
731,50	-0,000
732,00	-0,000
732,50	0,000
733,00	0,000
733,50	-0,000
734,00	-0,000
734,50	-0,000
735,00	-0,000
735,50	-0,000
736,00	-0,000
736,50	-0,000
737,00	-0,000
737,50	-0,000
738,00	-0,000
738,50	-0,001
739,00	-0,001
739,50	-0,001
740,00	-0,001
740,50	-0,001
741,00	-0,001
741,50	-0,001
742,00	-0,001
742,50	-0,001
743,00	-0,001
743,50	-0,001
744,00	-0,001
744,50	-0,001
745,00	-0,001
745,50	-0,001
746,00	-0,001
746,50	-0,001
747,00	-0,001
747,50	-0,001
748,00	-0,001
748,50	-0,001
749,00	-0,001
749,50	-0,001
750,00	-0,001
750,50	-0,001
751,00	-0,001
751,50	-0,001
752,00	-0,002
752,50	-0,001
753,00	-0,001
753,50	-0,001
754,00	-0,002
754,50	-0,002
755,00	-0,002
755,50	-0,002
756,00	-0,002
756,50	-0,002
757,00	-0,002
757,50	-0,002
758,00	-0,002
758,50	-0,002
759,00	-0,002
759,50	-0,002
760,00	-0,002
760,50	-0,002
761,00	-0,002
761,50	-0,002
762,00	-0,002
762,50	-0,002
763,00	-0,002
763,50	-0,002
764,00	-0,002
764,50	-0,002
765,00	-0,002
765,50	-0,002
766,00	-0,002
766,50	-0,002
767,00	-0,002
767,50	-0,002
768,00	-0,002
768,50	-0,002
769,00	-0,002
769,50	-0,002
770,00	-0,002
770,50	-0,002
771,00	-0,002
771,50	-0,002
772,00	-0,002
772,50	-0,002
773,00	-0,002
773,50	-0,002
774,00	-0,002
774,50	-0,001
775,00	-0,001
775,50	-0,001
776,00	-0,001
776,50	-0,001
777,00	-0,001
777,50	-0,001
778,00	-0,002
778,50	-0,001
779,00	-0,002
779,50	-0,002
780,00	-0,002
780,50	-0,002
781,00	-0,002
781,50	-0,002
782,00	-0,002
782,50	-0,002
783,00	-0,002
783,50	-0,002
784,00	-0,002
784,50	-0,002
785,00	-0,003
785,50	-0,003
786,00	-0,003
786,50	-0,003
787,00	-0,003
787,50	-0,003
788,00	-0,003
788,50	-0,003
789,00	-0,003
789,50	-0,003
790,00	-0,003
790,50	-0,003
791,00	-0,003
791,50	-0,003
792,00	-0,003
792,50	-0,003
793,00	-0,003
793,50	-0,003
794,00	-0,003
794,50	-0,003
795,00	-0,003
795,50	-0,003
796,00	-0,003
796,50	-0,003
797,00	-0,003
797,50	-0,003
798,00	-0,003
798,50	-0,003
799,00	-0,003
799,50	-0,003
800,00	-0,003