File: Espectro Uv-Vis/oro/10/1.27e-4.txt
"1.27e-4 - Dataset 190451"
"Wavelength nm."	"Abs."
200,00	2,368
200,50	2,368
201,00	2,368
201,50	2,368
202,00	2,368
202,50	2,368
203,00	2,368
203,50	2,368
204,00	2,368
204,50	2,206
205,00	2,742
205,50	2,583
206,00	1,834
206,50	2,141
207,00	2,491
207,50	2,909
208,00	2,757
208,50	3,122
209,00	2,807
209,50	2,431
210,00	1,247
210,50	1,319
211,00	1,190
211,50	0,752
212,00	0,409
212,50	1,219
213,00	2,013
213,50	2,323
214,00	2,451
214,50	3,080
215,00	2,787
215,50	2,979
216,00	2,992
216,50	2,893
217,00	2,631
217,50	2,194
218,00	1,506
218,50	0,937
219,00	0,167
219,50	0,516
220,00	0,974
220,50	1,627
221,00	1,728
221,50	1,865
222,00	1,419
222,50	1,572
223,00	1,482
223,50	1,581
224,00	1,938
224,50	2,083
225,00	2,033
225,50	1,899
226,00	1,162
226,50	0,971
227,00	1,253
227,50	1,369
228,00	1,655
228,50	1,857
229,00	1,853
229,50	1,381
230,00	1,371
230,50	1,921
231,00	1,873
231,50	1,751
232,00	1,767
232,50	1,801
233,00	1,813
233,50	1,711
234,00	1,004
234,50	1,513
235,00	1,474
235,50	0,967
236,00	1,640
236,50	1,799
237,00	1,683
237,50	1,514
238,00	1,973
238,50	1,875
239,00	1,780
239,50	1,046
240,00	0,864
240,50	1,219
241,00	1,119
241,50	0,835
242,00	0,478
242,50	0,801
243,00	0,623
243,50	0,007
244,00	0,693
244,50	0,860
245,00	0,954
245,50	1,051
246,00	1,055
246,50	0,987
247,00	0,502
247,50	0,422
248,00	1,010
248,50	1,088
249,00	1,135
249,50	1,081
250,00	1,032
250,50	0,998
251,00	0,746
251,50	0,334
252,00	0,261
252,50	0,010
253,00	0,364
253,50	0,655
254,00	0,832
254,50	0,961
255,00	0,907
255,50	1,382
256,00	1,526
256,50	1,567
257,00	1,583
257,50	1,494
258,00	1,340
258,50	1,088
259,00	0,701
259,50	-0,173
260,00	-0,344
260,50	-0,374
261,00	0,478
261,50	0,971
262,00	1,254
262,50	1,367
263,00	1,497
263,50	1,531
264,00	1,268
264,50	1,510
265,00	1,644
265,50	1,697
266,00	1,145
266,50	1,188
267,00	1,111
267,50	0,874
268,00	1,186
268,50	1,001
269,00	1,409
269,50	1,420
270,00	1,311
270,50	1,028
271,00	0,887
271,50	0,564
272,00	0,172
272,50	0,455
273,00	0,254
273,50	0,160
274,00	-0,295
274,50	0,064
275,00	-0,017
275,50	-0,107
276,00	-0,159
276,50	-0,186
277,00	-0,203
277,50	-0,147
278,00	-0,118
278,50	-0,158
279,00	-0,111
279,50	-0,137
280,00	-0,091
280,50	0,000
281,00	0,055
281,50	0,160
282,00	0,060
282,50	0,125
283,00	0,096
283,50	0,105
284,00	0,152
284,50	0,173
285,00	0,183
285,50	0,218
286,00	0,224
286,50	0,216
287,00	0,204
287,50	0,216
288,00	0,217
288,50	0,214
289,00	0,214
289,50	0,220
290,00	0,225
290,50	0,224
291,00	0,227
291,50	0,226
292,00	0,222
292,50	0,216
293,00	0,210
293,50	0,202
294,00	0,194
294,50	0,185
295,00	0,178
295,50	0,172
296,00	0,167
296,50	0,164
297,00	0,162
297,50	0,162
298,00	0,159
298,50	0,158
299,00	0,157
299,50	0,155
300,00	0,153
300,50	0,152
301,00	0,151
301,50	0,150
302,00	0,150
302,50	0,149
303,00	0,148
303,50	0,148
304,00	0,147
304,50	0,147
305,00	0,146
305,50	0,146
306,00	0,145
306,50	0,145
307,00	0,144
307,50	0,143
308,00	0,143
308,50	0,142
309,00	0,142
309,50	0,141
310,00	0,140
310,50	0,140
311,00	0,139
311,50	0,139
312,00	0,138
312,50	0,138
313,00	0,138
313,50	0,137
314,00	0,137
314,50	0,136
315,00	0,136
315,50	0,135
316,00	0,135
316,50	0,135
317,00	0,134
317,50	0,134
318,00	0,133
318,50	0,133
319,00	0,133
319,50	0,132
320,00	0,132
320,50	0,131
321,00	0,131
321,50	0,131
322,00	0,130
322,50	0,129
323,00	0,129
323,50	0,128
324,00	0,128
324,50	0,127
325,00	0,127
325,50	0,127
326,00	0,126
326,50	0,126
327,00	0,126
327,50	0,125
328,00	0,125
328,50	0,125
329,00	0,124
329,50	0,124
330,00	0,123
330,50	0,123
331,00	0,123
331,50	0,123
332,00	0,122
332,50	0,122
333,00	0,122
333,50	0,122
334,00	0,121
334,50	0,121
335,00	0,121
335,50	0,120
336,00	0,120
336,50	0,120
337,00	0,120
337,50	0,119
338,00	0,119
338,50	0,119
339,00	0,118
339,50	0,118
340,00	0,118
340,50	0,117
341,00	0,117
341,50	0,117
342,00	0,117
342,50	0,117
343,00	0,117
343,50	0,116
344,00	0,116
344,50	0,116
345,00	0,116
345,50	0,115
346,00	0,115
346,50	0,115
347,00	0,115
347,50	0,115
348,00	0,115
348,50	0,115
349,00	0,114
349,50	0,114
350,00	0,114
350,50	0,114
351,00	0,114
351,50	0,113
352,00	0,113
352,50	0,113
353,00	0,113
353,50	0,113
354,00	0,113
354,50	0,112
355,00	0,112
355,50	0,112
356,00	0,112
356,50	0,112
357,00	0,112
357,50	0,111
358,00	0,111
358,50	0,111
359,00	0,111
359,50	0,111
360,00	0,111
360,50	0,111
361,00	0,111
361,50	0,111
362,00	0,110
362,50	0,110
363,00	0,110
363,50	0,110
364,00	0,110
364,50	0,110
365,00	0,109
365,50	0,109
366,00	0,109
366,50	0,109
367,00	0,109
367,50	0,109
368,00	0,108
368,50	0,108
369,00	0,108
369,50	0,108
370,00	0,108
370,50	0,108
371,00	0,108
371,50	0,108
372,00	0,108
372,50	0,108
373,00	0,107
373,50	0,107
374,00	0,107
374,50	0,107
375,00	0,107
375,50	0,107
376,00	0,107
376,50	0,107
377,00	0,107
377,50	0,107
378,00	0,106
378,50	0,106
379,00	0,106
379,50	0,106
380,00	0,106
380,50	0,106
381,00	0,106
381,50	0,105
382,00	0,105
382,50	0,105
383,00	0,105
383,50	0,105
384,00	0,105
384,50	0,105
385,00	0,105
385,50	0,104
386,00	0,104
386,50	0,104
387,00	0,104
387,50	0,104
388,00	0,104
388,50	0,104
389,00	0,103
389,50	0,103
390,00	0,103
390,50	0,103
391,00	0,103
391,50	0,103
392,00	0,103
392,50	0,103
393,00	0,103
393,50	0,103
394,00	0,102
394,50	0,102
395,00	0,102
395,50	0,102
396,00	0,102
396,50	0,102
397,00	0,102
397,50	0,101
398,00	0,101
398,50	0,101
399,00	0,101
399,50	0,101
400,00	0,101
400,50	0,101
401,00	0,100
401,50	0,100
402,00	0,100
402,50	0,100
403,00	0,100
403,50	0,100
404,00	0,100
404,50	0,100
405,00	0,100
405,50	0,099
406,00	0,099
406,50	0,099
407,00	0,099
407,50	0,099
408,00	0,099
408,50	0,099
409,00	0,099
409,50	0,099
410,00	0,099
410,50	0,099
411,00	0,099
411,50	0,098
412,00	0,098
412,50	0,098
413,00	0,098
413,50	0,098
414,00	0,098
414,50	0,098
415,00	0,098
415,50	0,098
416,00	0,098
416,50	0,098
417,00	0,098
417,50	0,098
418,00	0,098
418,50	0,098
419,00	0,097
419,50	0,097
420,00	0,097
420,50	0,097
421,00	0,097
421,50	0,097
422,00	0,097
422,50	0,097
423,00	0,097
423,50	0,096
424,00	0,096
424,50	0,096
425,00	0,096
425,50	0,096
426,00	0,096
426,50	0,096
427,00	0,096
427,50	0,096
428,00	0,096
428,50	0,096
429,00	0,096
429,50	0,096
430,00	0,096
430,50	0,096
431,00	0,095
431,50	0,095
432,00	0,095
432,50	0,095
433,00	0,095
433,50	0,095
434,00	0,095
434,50	0,095
435,00	0,095
435,50	0,095
436,00	0,095
436,50	0,095
437,00	0,095
437,50	0,095
438,00	0,095
438,50	0,095
439,00	0,095
439,50	0,095
440,00	0,095
440,50	0,095
441,00	0,095
441,50	0,095
442,00	0,095
442,50	0,095
443,00	0,095
443,50	0,095
444,00	0,095
444,50	0,095
445,00	0,095
445,50	0,095
446,00	0,095
446,50	0,095
447,00	0,095
447,50	0,095
448,00	0,095
448,50	0,095
449,00	0,095
449,50	0,095
450,00	0,095
450,50	0,095
451,00	0,095
451,50	0,095
452,00	0,095
452,50	0,095
453,00	0,095
453,50	0,095
454,00	0,095
454,50	0,095
455,00	0,095
455,50	0,095
456,00	0,095
456,50	0,095
457,00	0,095
457,50	0,095
458,00	0,095
458,50	0,095
459,00	0,095
459,50	0,095
460,00	0,095
460,50	0,095
461,00	0,095
461,50	0,096
462,00	0,096
462,50	0,096
463,00	0,096
463,50	0,096
464,00	0,096
464,50	0,096
465,00	0,096
465,50	0,096
466,00	0,096
466,50	0,096
467,00	0,096
467,50	0,097
468,00	0,097
468,50	0,097
469,00	0,097
469,50	0,097
470,00	0,097
470,50	0,097
471,00	0,097
471,50	0,097
472,00	0,097
472,50	0,098
473,00	0,098
473,50	0,098
474,00	0,098
474,50	0,098
475,00	0,098
475,50	0,099
476,00	0,099
476,50	0,099
477,00	0,099
477,50	0,099
478,00	0,100
478,50	0,100
479,00	0,100
479,50	0,100
480,00	0,100
480,50	0,101
481,00	0,101
481,50	0,101
482,00	0,101
482,50	0,102
483,00	0,102
483,50	0,102
484,00	0,103
484,50	0,103
485,00	0,103
485,50	0,103
486,00	0,104
486,50	0,104
487,00	0,105
487,50	0,105
488,00	0,105
488,50	0,106
489,00	0,106
489,50	0,106
490,00	0,107
490,50	0,107
491,00	0,108
491,50	0,108
492,00	0,108
492,50	0,109
493,00	0,109
493,50	0,110
494,00	0,110
494,50	0,111
495,00	0,111
495,50	0,112
496,00	0,112
496,50	0,113
497,00	0,113
497,50	0,114
498,00	0,114
498,50	0,115
499,00	0,115
499,50	0,116
500,00	0,116
500,50	0,117
501,00	0,117
501,50	0,118
502,00	0,119
502,50	0,119
503,00	0,120
503,50	0,120
504,00	0,121
504,50	0,121
505,00	0,122
505,50	0,122
506,00	0,123
506,50	0,123
507,00	0,124
507,50	0,125
508,00	0,125
508,50	0,126
509,00	0,126
509,50	0,127
510,00	0,127
510,50	0,128
511,00	0,128
511,50	0,129
512,00	0,129
512,50	0,130
513,00	0,131
513,50	0,131
514,00	0,132
514,50	0,132
515,00	0,133
515,50	0,133
516,00	0,134
516,50	0,134
517,00	0,135
517,50	0,135
518,00	0,136
518,50	0,136
519,00	0,137
519,50	0,137
520,00	0,138
520,50	0,138
521,00	0,138
521,50	0,139
522,00	0,139
522,50	0,139
523,00	0,140
523,50	0,140
524,00	0,141
524,50	0,141
525,00	0,141
525,50	0,141
526,00	0,142
526,50	0,142
527,00	0,142
527,50	0,142
528,00	0,143
528,50	0,143
529,00	0,143
529,50	0,143
530,00	0,143
530,50	0,144
531,00	0,144
531,50	0,144
532,00	0,144
532,50	0,144
533,00	0,144
533,50	0,144
534,00	0,145
534,50	0,145
535,00	0,145
535,50	0,145
536,00	0,145
536,50	0,145
537,00	0,145
537,50	0,145
538,00	0,145
538,50	0,145
539,00	0,145
539,50	0,145
540,00	0,145
540,50	0,144
541,00	0,144
541,50	0,144
542,00	0,144
542,50	0,144
543,00	0,143
543,50	0,143
544,00	0,143
544,50	0,143
545,00	0,142
545,50	0,142
546,00	0,142
546,50	0,142
547,00	0,141
547,50	0,141
548,00	0,141
548,50	0,140
549,00	0,140
549,50	0,140
550,00	0,139
550,50	0,139
551,00	0,138
551,50	0,138
552,00	0,137
552,50	0,137
553,00	0,136
553,50	0,136
554,00	0,136
554,50	0,135
555,00	0,134
555,50	0,134
556,00	0,133
556,50	0,133
557,00	0,132
557,50	0,132
558,00	0,131
558,50	0,131
559,00	0,130
559,50	0,129
560,00	0,129
560,50	0,128
561,00	0,127
561,50	0,127
562,00	0,126
562,50	0,125
563,00	0,125
563,50	0,124
564,00	0,123
564,50	0,123
565,00	0,122
565,50	0,121
566,00	0,121
566,50	0,120
567,00	0,119
567,50	0,118
568,00	0,117
568,50	0,117
569,00	0,116
569,50	0,115
570,00	0,114
570,50	0,114
571,00	0,113
571,50	0,112
572,00	0,111
572,50	0,111
573,00	0,110
573,50	0,109
574,00	0,109
574,50	0,108
575,00	0,107
575,50	0,107
576,00	0,106
576,50	0,105
577,00	0,104
577,50	0,104
578,00	0,103
578,50	0,102
579,00	0,102
579,50	0,101
580,00	0,100
580,50	0,100
581,00	0,099
581,50	0,098
582,00	0,098
582,50	0,097
583,00	0,096
583,50	0,095
584,00	0,095
584,50	0,094
585,00	0,093
585,50	0,093
586,00	0,092
586,50	0,091
587,00	0,091
587,50	0,090
588,00	0,089
588,50	0,089
589,00	0,088
589,50	0,087
590,00	0,087
590,50	0,086
591,00	0,085
591,50	0,085
592,00	0,084
592,50	0,083
593,00	0,083
593,50	0,082
594,00	0,081
594,50	0,081
595,00	0,080
595,50	0,080
596,00	0,079
596,50	0,079
597,00	0,078
597,50	0,077
598,00	0,077
598,50	0,076
599,00	0,076
599,50	0,075
600,00	0,075
600,50	0,074
601,00	0,074
601,50	0,073
602,00	0,073
602,50	0,072
603,00	0,072
603,50	0,071
604,00	0,071
604,50	0,070
605,00	0,070
605,50	0,069
606,00	0,069
606,50	0,068
607,00	0,068
607,50	0,068
608,00	0,067
608,50	0,067
609,00	0,066
609,50	0,066
610,00	0,065
610,50	0,065
611,00	0,064
611,50	0,064
612,00	0,064
612,50	0,063
613,00	0,063
613,50	0,062
614,00	0,062
614,50	0,062
615,00	0,061
615,50	0,061
616,00	0,061
616,50	0,060
617,00	0,060
617,50	0,059
618,00	0,059
618,50	0,059
619,00	0,058
619,50	0,058
620,00	0,058
620,50	0,057
621,00	0,057
621,50	0,057
622,00	0,056
622,50	0,056
623,00	0,056
623,50	0,055
624,00	0,055
624,50	0,055
625,00	0,055
625,50	0,054
626,00	0,054
626,50	0,054
627,00	0,053
627,50	0,053
628,00	0,053
628,50	0,053
629,00	0,052
629,50	0,052
630,00	0,052
630,50	0,051
631,00	0,051
631,50	0,051
632,00	0,051
632,50	0,050
633,00	0,050
633,50	0,050
634,00	0,050
634,50	0,049
635,00	0,049
635,50	0,049
636,00	0,049
636,50	0,048
637,00	0,048
637,50	0,048
638,00	0,048
638,50	0,048
639,00	0,047
639,50	0,047
640,00	0,047
640,50	0,047
641,00	0,047
641,50	0,046
642,00	0,046
642,50	0,046
643,00	0,046
643,50	0,046
644,00	0,045
644,50	0,045
645,00	0,045
645,50	0,045
646,00	0,045
646,50	0,045
647,00	0,044
647,50	0,044
648,00	0,044
648,50	0,044
649,00	0,044
649,50	0,043
650,00	0,043
650,50	0,043
651,00	0,043
651,50	0,043
652,00	0,042
652,50	0,042
653,00	0,042
653,50	0,042
654,00	0,042
654,50	0,042
655,00	0,042
655,50	0,041
656,00	0,041
656,50	0,041
657,00	0,041
657,50	0,041
658,00	0,041
658,50	0,041
659,00	0,040
659,50	0,040
660,00	0,040
660,50	0,040
661,00	0,040
661,50	0,040
662,00	0,040
662,50	0,039
663,00	0,039
663,50	0,039
664,00	0,039
664,50	0,039
665,00	0,039
665,50	0,039
666,00	0,038
666,50	0,038
667,00	0,038
667,50	0,038
668,00	0,038
668,50	0,038
669,00	0,038
669,50	0,038
670,00	0,038
670,50	0,038
671,00	0,038
671,50	0,037
672,00	0,037
672,50	0,037
673,00	0,037
673,50	0,037
674,00	0,037
674,50	0,037
675,00	0,037
675,50	0,037
676,00	0,036
676,50	0,036
677,00	0,036
677,50	0,036
678,00	0,036
678,50	0,036
679,00	0,036
679,50	0,036
680,00	0,036
680,50	0,036
681,00	0,036
681,50	0,036
682,00	0,036
682,50	0,036
683,00	0,035
683,50	0,035
684,00	0,035
684,50	0,035
685,00	0,035
685,50	0,035
686,00	0,035
686,50	0,035
687,00	0,035
687,50	0,035
688,00	0,035
688,50	0,035
689,00	0,035
689,50	0,034
690,00	0,034
690,50	0,034
691,00	0,034
691,50	0,034
692,00	0,034
692,50	0,034
693,00	0,034
693,50	0,034
694,00	0,034
694,50	0,034
695,00	0,034
695,50	0,033
696,00	0,033
696,50	0,033
697,00	0,033
697,50	0,033
698,00	0,033
698,50	0,033
699,00	0,033
699,50	0,033
700,00	0,033
700,50	0,033
701,00	0,033
701,50	0,033
702,00	0,033
702,50	0,033
703,00	0,032
703,50	0,032
704,00	0,032
704,50	0,032
705,00	0,032
705,50	0,032
706,00	0,032
706,50	0,032
707,00	0,032
707,50	0,032
708,00	0,032
708,50	0,032
709,00	0,031
709,50	0,031
710,00	0,031
710,50	0,031
711,00	0,031
711,50	0,031
712,00	0,031
712,50	0,031
713,00	0,031
713,50	0,031
714,00	0,031
714,50	0,031
715,00	0,031
715,50	0,031
716,00	0,030
716,50	0,030
717,00	0,030
717,50	0,030
718,00	0,030
718,50	0,030
719,00	0,030
719,50	0,030
720,00	0,030
720,50	0,030
721,00	0,030
721,50	0,030
722,00	0,030
722,50	0,030
723,00	0,030
723,50	0,030
724,00	0,030
724,50	0,029
725,00	0,029
725,50	0,029
726,00	0,029
726,50	0,029
727,00	0,029
727,50	0,029
728,00	0,029
728,50	0,029
729,00	0,029
729,50	0,029
730,00	0,029
730,50	0,029
731,00	0,029
731,50	0,029
732,00	0,029
732,50	0,029
733,00	0,029
733,50	0,029
734,00	0,029
734,50	0,029
735,00	0,029
735,50	0,029
736,00	0,028
736,50	0,028
737,00	0,028
737,50	0,028
738,00	0,028
738,50	0,028
739,00	0,028
739,50	0,028
740,00	0,028
740,50	0,028
741,00	0,028
741,50	0,028
742,00	0,028
742,50	0,028
743,00	0,028
743,50	0,028
744,00	0,028
744,50	0,028
745,00	0,028
745,50	0,028
746,00	0,028
746,50	0,028
747,00	0,028
747,50	0,028
748,00	0,028
748,50	0,028
749,00	0,028
749,50	0,028
750,00	0,028
750,50	0,028
751,00	0,027
751,50	0,027
752,00	0,027
752,50	0,027
753,00	0,027
753,50	0,027
754,00	0,027
754,50	0,027
755,00	0,027
755,50	0,027
756,00	0,027
756,50	0,027
757,00	0,027
757,50	0,027
758,00	0,027
758,50	0,027
759,00	0,027
759,50	0,027
760,00	0,027
760,50	0,027
761,00	0,027
761,50	0,027
762,00	0,027
762,50	0,027
763,00	0,027
763,50	0,027
764,00	0,027
764,50	0,027
765,00	0,027
765,50	0,027
766,00	0,027
766,50	0,027
767,00	0,027
767,50	0,026
768,00	0,026
768,50	0,026
769,00	0,026
769,50	0,026
770,00	0,026
770,50	0,026
771,00	0,026
771,50	0,026
772,00	0,026
772,50	0,026
773,00	0,026
773,50	0,026
774,00	0,026
774,50	0,026
775,00	0,026
775,50	0,026
776,00	0,025
776,50	0,025
777,00	0,025
777,50	0,025
778,00	0,025
778,50	0,025
779,00	0,025
779,50	0,025
780,00	0,025
780,50	0,025
781,00	0,025
781,50	0,025
782,00	0,025
782,50	0,025
783,00	0,025
783,50	0,025
784,00	0,025
784,50	0,025
785,00	0,025
785,50	0,025
786,00	0,025
786,50	0,025
787,00	0,025
787,50	0,025
788,00	0,025
788,50	0,025
789,00	0,025
789,50	0,025
790,00	0,025
790,50	0,025
791,00	0,025
791,50	0,025
792,00	0,025
792,50	0,025
793,00	0,025
793,50	0,025
794,00	0,025
794,50	0,025
795,00	0,025
795,50	0,025
796,00	0,025
796,50	0,025
797,00	0,025
797,50	0,025
798,00	0,025
798,50	0,025
799,00	0,025
799,50	0,025
800,00	0,025