File: Espectro Uv-Vis/citrato/2.00/1.9.txt
"2 - Dataset 201033"
"Wavelength nm."	"Abs."
200,00	0.574
200,50	0.562
201,00	0.554
201,50	0.547
202,00	0.541
202,50	0.535
203,00	0.53
203,50	0.527
204,00	0.518
204,50	0.515
205,00	0.513
205,50	0.507
206,00	0.504
206,50	0.502
207,00	0.498
207,50	0.495
208,00	0.492
208,50	0.491
209,00	0.487
209,50	0.484
210,00	0.483
210,50	0.479
211,00	0.476
211,50	0.474
212,00	0.47
212,50	0.47
213,00	0.467
213,50	0.463
214,00	0.46
214,50	0.458
215,00	0.454
215,50	0.451
216,00	0.448
216,50	0.445
217,00	0.441
217,50	0.442
218,00	0.438
218,50	0.436
219,00	0.434
219,50	0.43
220,00	0.429
220,50	0.426
221,00	0.423
221,50	0.42
222,00	0.418
222,50	0.416
223,00	0.413
223,50	0.412
224,00	0.41
224,50	0.407
225,00	0.406
225,50	0.404
226,00	0.4
226,50	0.4
227,00	0.396
227,50	0.395
228,00	0.394
228,50	0.392
229,00	0.392
229,50	0.389
230,00	0.386
230,50	0.387
231,00	0.384
231,50	0.383
232,00	0.382
232,50	0.38
233,00	0.378
233,50	0.377
234,00	0.375
234,50	0.374
235,00	0.373
235,50	0.372
236,00	0.371
236,50	0.37
237,00	0.369
237,50	0.369
238,00	0.367
238,50	0.366
239,00	0.366
239,50	0.365
240,00	0.365
240,50	0.363
241,00	0.363
241,50	0.363
242,00	0.362
242,50	0.36
243,00	0.359
243,50	0.36
244,00	0.359
244,50	0.359
245,00	0.358
245,50	0.357
246,00	0.355
246,50	0.356
247,00	0.355
247,50	0.355
248,00	0.354
248,50	0.353
249,00	0.352
249,50	0.352
250,00	0.351
250,50	0.352
251,00	0.35
251,50	0.349
252,00	0.349
252,50	0.349
253,00	0.347
253,50	0.348
254,00	0.345
254,50	0.344
255,00	0.344
255,50	0.344
256,00	0.343
256,50	0.342
257,00	0.341
257,50	0.34
258,00	0.34
258,50	0.339
259,00	0.337
259,50	0.336
260,00	0.335
260,50	0.335
261,00	0.333
261,50	0.332
262,00	0.331
262,50	0.33
263,00	0.329
263,50	0.327
264,00	0.326
264,50	0.325
265,00	0.325
265,50	0.324
266,00	0.322
266,50	0.321
267,00	0.32
267,50	0.318
268,00	0.317
268,50	0.316
269,00	0.314
269,50	0.313
270,00	0.311
270,50	0.311
271,00	0.31
271,50	0.307
272,00	0.306
272,50	0.304
273,00	0.303
273,50	0.302
274,00	0.301
274,50	0.299
275,00	0.297
275,50	0.297
276,00	0.295
276,50	0.293
277,00	0.293
277,50	0.291
278,00	0.289
278,50	0.288
279,00	0.287
279,50	0.286
280,00	0.284
280,50	0.283
281,00	0.281
281,50	0.281
282,00	0.279
282,50	0.277
283,00	0.276
283,50	0.275
284,00	0.274
284,50	0.273
285,00	0.272
285,50	0.27
286,00	0.269
286,50	0.269
287,00	0.267
287,50	0.267
288,00	0.266
288,50	0.264
289,00	0.263
289,50	0.263
290,00	0.261
290,50	0.258
291,00	0.258
291,50	0.256
292,00	0.256
292,50	0.254
293,00	0.253
293,50	0.253
294,00	0.251
294,50	0.251
295,00	0.251
295,50	0.249
296,00	0.247
296,50	0.248
297,00	0.246
297,50	0.244
298,00	0.244
298,50	0.244
299,00	0.242
299,50	0.241
300,00	0.242
300,50	0.239
301,00	0.238
301,50	0.237
302,00	0.238
302,50	0.236
303,00	0.235
303,50	0.234
304,00	0.233
304,50	0.232
305,00	0.231
305,50	0.231
306,00	0.232
306,50	0.23
307,00	0.23
307,50	0.227
308,00	0.227
308,50	0.227
309,00	0.226
309,50	0.225
310,00	0.225
310,50	0.224
311,00	0.225
311,50	0.224
312,00	0.224
312,50	0.222
313,00	0.221
313,50	0.221
314,00	0.221
314,50	0.218
315,00	0.219
315,50	0.217
316,00	0.217
316,50	0.217
317,00	0.217
317,50	0.214
318,00	0.215
318,50	0.213
319,00	0.215
319,50	0.213
320,00	0.212
320,50	0.213
321,00	0.212
321,50	0.212
322,00	0.211
322,50	0.21
323,00	0.209
323,50	0.208
324,00	0.209
324,50	0.207
325,00	0.207
325,50	0.208
326,00	0.207
326,50	0.206
327,00	0.207
327,50	0.206
328,00	0.206
328,50	0.205
329,00	0.203
329,50	0.204
330,00	0.205
330,50	0.203
331,00	0.203
331,50	0.203
332,00	0.204
332,50	0.203
333,00	0.202
333,50	0.202
334,00	0.201
334,50	0.202
335,00	0.201
335,50	0.2
336,00	0.199
336,50	0.2
337,00	0.199
337,50	0.199
338,00	0.199
338,50	0.199
339,00	0.197
339,50	0.199
340,00	0.197
340,50	0.197
341,00	0.197
341,50	0.197
342,00	0.198
342,50	0.197
343,00	0.197
343,50	0.197
344,00	0.196
344,50	0.196
345,00	0.197
345,50	0.196
346,00	0.197
346,50	0.196
347,00	0.196
347,50	0.195
348,00	0.195
348,50	0.195
349,00	0.196
349,50	0.194
350,00	0.195
350,50	0.195
351,00	0.194
351,50	0.194
352,00	0.195
352,50	0.194
353,00	0.194
353,50	0.195
354,00	0.195
354,50	0.194
355,00	0.193
355,50	0.193
356,00	0.193
356,50	0.194
357,00	0.193
357,50	0.193
358,00	0.193
358,50	0.193
359,00	0.193
359,50	0.193
360,00	0.193
360,50	0.192
361,00	0.192
361,50	0.191
362,00	0.191
362,50	0.19
363,00	0.191
363,50	0.191
364,00	0.19
364,50	0.191
365,00	0.19
365,50	0.19
366,00	0.19
366,50	0.189
367,00	0.188
367,50	0.189
368,00	0.189
368,50	0.189
369,00	0.188
369,50	0.188
370,00	0.188
370,50	0.187
371,00	0.188
371,50	0.187
372,00	0.186
372,50	0.186
373,00	0.186
373,50	0.186
374,00	0.186
374,50	0.186
375,00	0.185
375,50	0.185
376,00	0.185
376,50	0.185
377,00	0.185
377,50	0.185
378,00	0.184
378,50	0.184
379,00	0.184
379,50	0.183
380,00	0.184
380,50	0.183
381,00	0.183
381,50	0.182
382,00	0.182
382,50	0.183
383,00	0.183
383,50	0.182
384,00	0.181
384,50	0.181
385,00	0.181
385,50	0.181
386,00	0.181
386,50	0.18
387,00	0.18
387,50	0.18
388,00	0.179
388,50	0.18
389,00	0.179
389,50	0.179
390,00	0.178
390,50	0.179
391,00	0.178
391,50	0.178
392,00	0.179
392,50	0.178
393,00	0.178
393,50	0.177
394,00	0.178
394,50	0.177
395,00	0.177
395,50	0.177
396,00	0.176
396,50	0.177
397,00	0.176
397,50	0.175
398,00	0.175
398,50	0.176
399,00	0.176
399,50	0.175
400,00	0.175
400,50	0.175
401,00	0.175
401,50	0.174
402,00	0.174
402,50	0.174
403,00	0.174
403,50	0.173
404,00	0.174
404,50	0.174
405,00	0.174
405,50	0.173
406,00	0.173
406,50	0.173
407,00	0.172
407,50	0.172
408,00	0.173
408,50	0.171
409,00	0.172
409,50	0.172
410,00	0.172
410,50	0.172
411,00	0.171
411,50	0.171
412,00	0.171
412,50	0.171
413,00	0.171
413,50	0.171
414,00	0.171
414,50	0.171
415,00	0.171
415,50	0.17
416,00	0.17
416,50	0.17
417,00	0.17
417,50	0.17
418,00	0.17
418,50	0.17
419,00	0.17
419,50	0.169
420,00	0.169
420,50	0.169
421,00	0.169
421,50	0.169
422,00	0.169
422,50	0.169
423,00	0.169
423,50	0.168
424,00	0.169
424,50	0.168
425,00	0.168
425,50	0.169
426,00	0.169
426,50	0.169
427,00	0.168
427,50	0.168
428,00	0.168
428,50	0.168
429,00	0.168
429,50	0.168
430,00	0.168
430,50	0.167
431,00	0.167
431,50	0.168
432,00	0.167
432,50	0.167
433,00	0.167
433,50	0.168
434,00	0.167
434,50	0.167
435,00	0.168
435,50	0.167
436,00	0.167
436,50	0.168
437,00	0.167
437,50	0.167
438,00	0.167
438,50	0.167
439,00	0.167
439,50	0.168
440,00	0.168
440,50	0.167
441,00	0.168
441,50	0.167
442,00	0.168
442,50	0.167
443,00	0.167
443,50	0.168
444,00	0.167
444,50	0.168
445,00	0.168
445,50	0.168
446,00	0.168
446,50	0.168
447,00	0.168
447,50	0.168
448,00	0.168
448,50	0.168
449,00	0.169
449,50	0.169
450,00	0.169
450,50	0.169
451,00	0.169
451,50	0.169
452,00	0.169
452,50	0.169
453,00	0.17
453,50	0.17
454,00	0.17
454,50	0.17
455,00	0.17
455,50	0.171
456,00	0.171
456,50	0.171
457,00	0.171
457,50	0.171
458,00	0.172
458,50	0.172
459,00	0.172
459,50	0.172
460,00	0.173
460,50	0.173
461,00	0.173
461,50	0.174
462,00	0.174
462,50	0.174
463,00	0.175
463,50	0.175
464,00	0.175
464,50	0.176
465,00	0.176
465,50	0.177
466,00	0.177
466,50	0.178
467,00	0.178
467,50	0.179
468,00	0.179
468,50	0.179
469,00	0.18
469,50	0.18
470,00	0.181
470,50	0.181
471,00	0.181
471,50	0.182
472,00	0.183
472,50	0.183
473,00	0.184
473,50	0.184
474,00	0.185
474,50	0.186
475,00	0.186
475,50	0.187
476,00	0.188
476,50	0.188
477,00	0.189
477,50	0.19
478,00	0.191
478,50	0.191
479,00	0.192
479,50	0.193
480,00	0.194
480,50	0.195
481,00	0.196
481,50	0.196
482,00	0.197
482,50	0.198
483,00	0.199
483,50	0.2
484,00	0.202
484,50	0.202
485,00	0.204
485,50	0.205
486,00	0.206
486,50	0.207
487,00	0.208
487,50	0.209
488,00	0.21
488,50	0.212
489,00	0.213
489,50	0.214
490,00	0.216
490,50	0.217
491,00	0.219
491,50	0.22
492,00	0.221
492,50	0.223
493,00	0.224
493,50	0.226
494,00	0.227
494,50	0.229
495,00	0.231
495,50	0.233
496,00	0.234
496,50	0.236
497,00	0.238
497,50	0.24
498,00	0.241
498,50	0.243
499,00	0.244
499,50	0.245
500,00	0.247
500,50	0.249
501,00	0.251
501,50	0.252
502,00	0.254
502,50	0.256
503,00	0.257
503,50	0.259
504,00	0.26
504,50	0.262
505,00	0.263
505,50	0.265
506,00	0.266
506,50	0.268
507,00	0.269
507,50	0.27
508,00	0.272
508,50	0.273
509,00	0.275
509,50	0.276
510,00	0.277
510,50	0.278
511,00	0.279
511,50	0.28
512,00	0.281
512,50	0.282
513,00	0.283
513,50	0.283
514,00	0.285
514,50	0.285
515,00	0.285
515,50	0.286
516,00	0.286
516,50	0.287
517,00	0.287
517,50	0.287
518,00	0.288
518,50	0.288
519,00	0.287
519,50	0.287
520,00	0.288
520,50	0.287
521,00	0.287
521,50	0.286
522,00	0.285
522,50	0.285
523,00	0.285
523,50	0.283
524,00	0.283
524,50	0.282
525,00	0.281
525,50	0.28
526,00	0.279
526,50	0.277
527,00	0.276
527,50	0.275
528,00	0.274
528,50	0.272
529,00	0.27
529,50	0.269
530,00	0.268
530,50	0.266
531,00	0.264
531,50	0.263
532,00	0.26
532,50	0.259
533,00	0.257
533,50	0.255
534,00	0.252
534,50	0.25
535,00	0.248
535,50	0.247
536,00	0.244
536,50	0.242
537,00	0.24
537,50	0.237
538,00	0.235
538,50	0.233
539,00	0.23
539,50	0.227
540,00	0.225
540,50	0.222
541,00	0.22
541,50	0.217
542,00	0.215
542,50	0.212
543,00	0.21
543,50	0.208
544,00	0.205
544,50	0.203
545,00	0.2
545,50	0.197
546,00	0.195
546,50	0.192
547,00	0.19
547,50	0.187
548,00	0.184
548,50	0.183
549,00	0.18
549,50	0.178
550,00	0.175
550,50	0.173
551,00	0.171
551,50	0.168
552,00	0.166
552,50	0.164
553,00	0.161
553,50	0.159
554,00	0.157
554,50	0.155
555,00	0.153
555,50	0.151
556,00	0.148
556,50	0.146
557,00	0.145
557,50	0.142
558,00	0.14
558,50	0.138
559,00	0.136
559,50	0.134
560,00	0.132
560,50	0.131
561,00	0.128
561,50	0.127
562,00	0.125
562,50	0.123
563,00	0.121
563,50	0.119
564,00	0.117
564,50	0.116
565,00	0.114
565,50	0.113
566,00	0.111
566,50	0.109
567,00	0.108
567,50	0.106
568,00	0.105
568,50	0.103
569,00	0.101
569,50	0.1
570,00	0.098
570,50	0.097
571,00	0.095
571,50	0.094
572,00	0.093
572,50	0.091
573,00	0.09
573,50	0.089
574,00	0.088
574,50	0.086
575,00	0.085
575,50	0.084
576,00	0.083
576,50	0.081
577,00	0.08
577,50	0.079
578,00	0.078
578,50	0.077
579,00	0.076
579,50	0.075
580,00	0.073
580,50	0.073
581,00	0.071
581,50	0.07
582,00	0.07
582,50	0.069
583,00	0.068
583,50	0.067
584,00	0.066
584,50	0.065
585,00	0.065
585,50	0.063
586,00	0.062
586,50	0.061
587,00	0.061
587,50	0.06
588,00	0.059
588,50	0.059
589,00	0.058
589,50	0.057
590,00	0.056
590,50	0.055
591,00	0.054
591,50	0.054
592,00	0.053
592,50	0.052
593,00	0.052
593,50	0.051
594,00	0.05
594,50	0.05
595,00	0.049
595,50	0.048
596,00	0.048
596,50	0.048
597,00	0.046
597,50	0.046
598,00	0.046
598,50	0.045
599,00	0.045
599,50	0.044
600,00	0.043
600,50	0.043
601,00	0.043
601,50	0.042
602,00	0.041
602,50	0.041
603,00	0.04
603,50	0.04
604,00	0.04
604,50	0.039
605,00	0.039
605,50	0.039
606,00	0.038
606,50	0.037
607,00	0.037
607,50	0.037
608,00	0.036
608,50	0.036
609,00	0.035
609,50	0.035
610,00	0.034
610,50	0.034
611,00	0.034
611,50	0.033
612,00	0.033
612,50	0.032
613,00	0.032
613,50	0.032
614,00	0.031
614,50	0.031
615,00	0.03
615,50	0.03
616,00	0.03
616,50	0.03
617,00	0.029
617,50	0.029
618,00	0.029
618,50	0.028
619,00	0.028
619,50	0.028
620,00	0.028
620,50	0.027
621,00	0.027
621,50	0.026
622,00	0.026
622,50	0.026
623,00	0.026
623,50	0.025
624,00	0.025
624,50	0.025
625,00	0.024
625,50	0.025
626,00	0.024
626,50	0.024
627,00	0.023
627,50	0.023
628,00	0.023
628,50	0.023
629,00	0.023
629,50	0.023
630,00	0.022
630,50	0.022
631,00	0.022
631,50	0.022
632,00	0.022
632,50	0.021
633,00	0.021
633,50	0.02
634,00	0.02
634,50	0.021
635,00	0.02
635,50	0.02
636,00	0.02
636,50	0.02
637,00	0.02
637,50	0.019
638,00	0.019
638,50	0.019
639,00	0.019
639,50	0.019
640,00	0.018
640,50	0.018
641,00	0.018
641,50	0.018
642,00	0.018
642,50	0.017
643,00	0.017
643,50	0.017
644,00	0.017
644,50	0.017
645,00	0.017
645,50	0.016
646,00	0.016
646,50	0.016
647,00	0.016
647,50	0.016
648,00	0.016
648,50	0.016
649,00	0.016
649,50	0.015
650,00	0.015
650,50	0.015
651,00	0.015
651,50	0.015
652,00	0.015
652,50	0.015
653,00	0.014
653,50	0.014
654,00	0.015
654,50	0.015
655,00	0.014
655,50	0.014
656,00	0.014
656,50	0.014
657,00	0.014
657,50	0.014
658,00	0.014
658,50	0.013
659,00	0.014
659,50	0.013
660,00	0.013
660,50	0.013
661,00	0.014
661,50	0.013
662,00	0.013
662,50	0.013
663,00	0.013
663,50	0.013
664,00	0.013
664,50	0.012
665,00	0.013
665,50	0.012
666,00	0.012
666,50	0.012
667,00	0.012
667,50	0.011
668,00	0.011
668,50	0.011
669,00	0.011
669,50	0.011
670,00	0.011
670,50	0.011
671,00	0.01
671,50	0.011
672,00	0.01
672,50	0.01
673,00	0.01
673,50	0.01
674,00	0.01
674,50	0.009
675,00	0.01
675,50	0.01
676,00	0.01
676,50	0.01
677,00	0.01
677,50	0.009
678,00	0.01
678,50	0.009
679,00	0.01
679,50	0.009
680,00	0.009
680,50	0.01
681,00	0.01
681,50	0.009
682,00	0.009
682,50	0.009
683,00	0.009
683,50	0.009
684,00	0.009
684,50	0.009
685,00	0.009
685,50	0.009
686,00	0.009
686,50	0.009
687,00	0.008
687,50	0.009
688,00	0.009
688,50	0.009
689,00	0.009
689,50	0.008
690,00	0.008
690,50	0.008
691,00	0.008
691,50	0.008
692,00	0.008
692,50	0.008
693,00	0.008
693,50	0.008
694,00	0.007
694,50	0.008
695,00	0.008
695,50	0.007
696,00	0.008
696,50	0.007
697,00	0.007
697,50	0.007
698,00	0.008
698,50	0.007
699,00	0.007
699,50	0.008
700,00	0.007
700,50	0.007
701,00	0.007
701,50	0.007
702,00	0.007
702,50	0.007
703,00	0.007
703,50	0.007
704,00	0.007
704,50	0.007
705,00	0.007
705,50	0.007
706,00	0.007
706,50	0.007
707,00	0.006
707,50	0.007
708,00	0.007
708,50	0.007
709,00	0.007
709,50	0.007
710,00	0.007
710,50	0.007
711,00	0.007
711,50	0.007
712,00	0.006
712,50	0.006
713,00	0.007
713,50	0.006
714,00	0.006
714,50	0.006
715,00	0.007
715,50	0.006
716,00	0.006
716,50	0.006
717,00	0.006
717,50	0.006
718,00	0.006
718,50	0.006
719,00	0.006
719,50	0.006
720,00	0.006
720,50	0.006
721,00	0.006
721,50	0.006
722,00	0.006
722,50	0.007
723,00	0.006
723,50	0.006
724,00	0.006
724,50	0.005
725,00	0.006
725,50	0.005
726,00	0.005
726,50	0.006
727,00	0.006
727,50	0.006
728,00	0.006
728,50	0.005
729,00	0.006
729,50	0.006
730,00	0.006
730,50	0.005
731,00	0.005
731,50	0.005
732,00	0.006
732,50	0.006
733,00	0.006
733,50	0.005
734,00	0.006
734,50	0.005
735,00	0.005
735,50	0.006
736,00	0.005
736,50	0.005
737,00	0.005
737,50	0.005
738,00	0.005
738,50	0.005
739,00	0.005
739,50	0.006
740,00	0.005
740,50	0.005
741,00	0.004
741,50	0.005
742,00	0.005
742,50	0.005
743,00	0.005
743,50	0.005
744,00	0.005
744,50	0.005
745,00	0.005
745,50	0.005
746,00	0.005
746,50	0.005
747,00	0.005
747,50	0.005
748,00	0.005
748,50	0.005
749,00	0.004
749,50	0.005
750,00	0.005
750,50	0.005
751,00	0.005
751,50	0.004
752,00	0.005
752,50	0.004
753,00	0.005
753,50	0.005
754,00	0.004
754,50	0.004
755,00	0.005
755,50	0.005
756,00	0.005
756,50	0.004
757,00	0.004
757,50	0.005
758,00	0.005
758,50	0.004
759,00	0.005
759,50	0.004
760,00	0.005
760,50	0.004
761,00	0.005
761,50	0.005
762,00	0.004
762,50	0.004
763,00	0.004
763,50	0.005
764,00	0.004
764,50	0.005
765,00	0.004
765,50	0.004
766,00	0.005
766,50	0.004
767,00	0.004
767,50	0.004
768,00	0.005
768,50	0.005
769,00	0.005
769,50	0.005
770,00	0.005
770,50	0.005
771,00	0.004
771,50	0.004
772,00	0.006
772,50	0.005
773,00	0.005
773,50	0.005
774,00	0.005
774,50	0.005
775,00	0.005
775,50	0.005
776,00	0.005
776,50	0.006
777,00	0.005
777,50	0.005
778,00	0.005
778,50	0.005
779,00	0.005
779,50	0.006
780,00	0.005
780,50	0.005
781,00	0.005
781,50	0.005
782,00	0.005
782,50	0.004
783,00	0.004
783,50	0.004
784,00	0.004
784,50	0.004
785,00	0.004
785,50	0.004
786,00	0.004
786,50	0.004
787,00	0.003
787,50	0.004
788,00	0.004
788,50	0.004
789,00	0.004
789,50	0.004
790,00	0.004
790,50	0.003
791,00	0.004
791,50	0.003
792,00	0.004
792,50	0.003
793,00	0.004
793,50	0.004
794,00	0.004
794,50	0.004
795,00	0.004
795,50	0.004
796,00	0.003
796,50	0.003
797,00	0.004
797,50	0.003
798,00	0.004
798,50	0.004
799,00	0.004
799,50	0.004
800,00	0.003