File: Espectro Uv-Vis/citrato/0.60/0.59.txt
"0.6ml_ - Dataset 231025"
"Wavelength nm."	"Abs."
200,00	0,777
200,50	0,777
201,00	0,777
201,50	0,777
202,00	0,777
202,50	0,777
203,00	0,777
203,50	0,777
204,00	0,777
204,50	1,057
205,00	1,298
205,50	1,230
206,00	1,183
206,50	1,661
207,00	1,779
207,50	1,824
208,00	1,863
208,50	1,409
209,00	1,547
209,50	1,671
210,00	1,571
210,50	1,357
211,00	1,110
211,50	0,594
212,00	0,754
212,50	1,085
213,00	0,954
213,50	0,714
214,00	0,683
214,50	0,442
215,00	0,305
215,50	0,095
216,00	-0,518
216,50	-0,570
217,00	-0,331
217,50	0,191
218,00	0,565
218,50	0,517
219,00	1,176
219,50	1,584
220,00	1,540
220,50	1,966
221,00	2,236
221,50	2,359
222,00	2,564
222,50	2,315
223,00	2,101
223,50	1,671
224,00	1,154
224,50	1,212
225,00	0,433
225,50	0,491
226,00	0,687
226,50	0,363
227,00	1,283
227,50	1,100
228,00	1,450
228,50	2,317
229,00	2,664
229,50	2,764
230,00	3,068
230,50	2,945
231,00	2,918
231,50	2,503
232,00	2,113
232,50	1,505
233,00	0,428
233,50	0,145
234,00	0,682
234,50	0,275
235,00	1,036
235,50	1,189
236,00	1,929
236,50	2,168
237,00	2,344
237,50	2,328
238,00	2,457
238,50	2,326
239,00	2,208
239,50	1,684
240,00	1,235
240,50	0,631
241,00	0,016
241,50	0,044
242,00	0,196
242,50	-0,147
243,00	0,144
243,50	0,204
244,00	0,253
244,50	-0,089
245,00	0,299
245,50	0,433
246,00	0,249
246,50	0,680
247,00	1,059
247,50	1,233
248,00	1,063
248,50	1,469
249,00	1,847
249,50	2,082
250,00	2,172
250,50	2,087
251,00	1,934
251,50	1,796
252,00	1,427
252,50	1,028
253,00	1,195
253,50	0,402
254,00	0,243
254,50	0,656
255,00	0,665
255,50	0,652
256,00	0,556
256,50	0,683
257,00	1,076
257,50	1,357
258,00	1,720
258,50	1,714
259,00	1,641
259,50	1,517
260,00	1,285
260,50	1,005
261,00	0,661
261,50	0,297
262,00	0,591
262,50	0,155
263,00	0,358
263,50	0,501
264,00	0,472
264,50	0,450
265,00	1,012
265,50	0,843
266,00	0,898
266,50	1,394
267,00	1,713
267,50	1,985
268,00	2,007
268,50	1,955
269,00	1,877
269,50	1,738
270,00	1,504
270,50	0,785
271,00	1,306
271,50	1,292
272,00	1,134
272,50	0,958
273,00	0,708
273,50	0,385
274,00	0,625
274,50	1,093
275,00	1,019
275,50	0,982
276,00	0,807
276,50	0,693
277,00	0,500
277,50	0,316
278,00	0,111
278,50	-0,117
279,00	0,268
279,50	0,247
280,00	0,236
280,50	0,258
281,00	0,309
281,50	0,322
282,00	0,345
282,50	0,346
283,00	0,341
283,50	0,355
284,00	0,355
284,50	0,362
285,00	0,349
285,50	0,363
286,00	0,369
286,50	0,361
287,00	0,351
287,50	0,350
288,00	0,345
288,50	0,336
289,00	0,310
289,50	0,288
290,00	0,286
290,50	0,276
291,00	0,273
291,50	0,278
292,00	0,282
292,50	0,277
293,00	0,285
293,50	0,298
294,00	0,310
294,50	0,327
295,00	0,347
295,50	0,347
296,00	0,350
296,50	0,339
297,00	0,322
297,50	0,323
298,00	0,330
298,50	0,320
299,00	0,321
299,50	0,324
300,00	0,319
300,50	0,307
301,00	0,315
301,50	0,313
302,00	0,313
302,50	0,317
303,00	0,319
303,50	0,319
304,00	0,322
304,50	0,319
305,00	0,320
305,50	0,317
306,00	0,315
306,50	0,309
307,00	0,310
307,50	0,313
308,00	0,312
308,50	0,306
309,00	0,305
309,50	0,301
310,00	0,303
310,50	0,300
311,00	0,298
311,50	0,299
312,00	0,300
312,50	0,299
313,00	0,296
313,50	0,298
314,00	0,302
314,50	0,302
315,00	0,306
315,50	0,309
316,00	0,307
316,50	0,306
317,00	0,305
317,50	0,304
318,00	0,300
318,50	0,296
319,00	0,294
319,50	0,293
320,00	0,292
320,50	0,291
321,00	0,291
321,50	0,295
322,00	0,294
322,50	0,292
323,00	0,294
323,50	0,294
324,00	0,294
324,50	0,297
325,00	0,296
325,50	0,294
326,00	0,291
326,50	0,290
327,00	0,287
327,50	0,285
328,00	0,283
328,50	0,284
329,00	0,283
329,50	0,281
330,00	0,278
330,50	0,277
331,00	0,277
331,50	0,276
332,00	0,275
332,50	0,278
333,00	0,278
333,50	0,278
334,00	0,279
334,50	0,280
335,00	0,278
335,50	0,278
336,00	0,277
336,50	0,277
337,00	0,275
337,50	0,272
338,00	0,270
338,50	0,268
339,00	0,267
339,50	0,264
340,00	0,262
340,50	0,262
341,00	0,262
341,50	0,264
342,00	0,266
342,50	0,266
343,00	0,264
343,50	0,265
344,00	0,265
344,50	0,264
345,00	0,264
345,50	0,263
346,00	0,264
346,50	0,265
347,00	0,266
347,50	0,265
348,00	0,264
348,50	0,264
349,00	0,265
349,50	0,266
350,00	0,266
350,50	0,266
351,00	0,265
351,50	0,265
352,00	0,263
352,50	0,263
353,00	0,264
353,50	0,264
354,00	0,263
354,50	0,263
355,00	0,262
355,50	0,261
356,00	0,260
356,50	0,260
357,00	0,260
357,50	0,259
358,00	0,259
358,50	0,258
359,00	0,258
359,50	0,257
360,00	0,258
360,50	0,259
361,00	0,260
361,50	0,259
362,00	0,257
362,50	0,257
363,00	0,259
363,50	0,260
364,00	0,261
364,50	0,262
365,00	0,262
365,50	0,261
366,00	0,260
366,50	0,259
367,00	0,258
367,50	0,257
368,00	0,256
368,50	0,255
369,00	0,254
369,50	0,253
370,00	0,253
370,50	0,254
371,00	0,255
371,50	0,257
372,00	0,259
372,50	0,259
373,00	0,257
373,50	0,257
374,00	0,257
374,50	0,256
375,00	0,254
375,50	0,253
376,00	0,253
376,50	0,252
377,00	0,251
377,50	0,251
378,00	0,250
378,50	0,250
379,00	0,250
379,50	0,252
380,00	0,254
380,50	0,253
381,00	0,251
381,50	0,251
382,00	0,251
382,50	0,252
383,00	0,250
383,50	0,251
384,00	0,250
384,50	0,249
385,00	0,249
385,50	0,249
386,00	0,248
386,50	0,249
387,00	0,249
387,50	0,250
388,00	0,249
388,50	0,249
389,00	0,248
389,50	0,248
390,00	0,248
390,50	0,248
391,00	0,247
391,50	0,248
392,00	0,247
392,50	0,248
393,00	0,248
393,50	0,249
394,00	0,248
394,50	0,248
395,00	0,248
395,50	0,247
396,00	0,246
396,50	0,246
397,00	0,244
397,50	0,244
398,00	0,243
398,50	0,242
399,00	0,242
399,50	0,242
400,00	0,242
400,50	0,242
401,00	0,242
401,50	0,243
402,00	0,242
402,50	0,242
403,00	0,241
403,50	0,240
404,00	0,240
404,50	0,239
405,00	0,238
405,50	0,238
406,00	0,237
406,50	0,236
407,00	0,236
407,50	0,236
408,00	0,237
408,50	0,238
409,00	0,238
409,50	0,238
410,00	0,238
410,50	0,238
411,00	0,238
411,50	0,238
412,00	0,238
412,50	0,237
413,00	0,236
413,50	0,235
414,00	0,234
414,50	0,234
415,00	0,233
415,50	0,234
416,00	0,234
416,50	0,233
417,00	0,234
417,50	0,234
418,00	0,234
418,50	0,234
419,00	0,233
419,50	0,232
420,00	0,232
420,50	0,231
421,00	0,229
421,50	0,229
422,00	0,229
422,50	0,229
423,00	0,230
423,50	0,230
424,00	0,231
424,50	0,230
425,00	0,231
425,50	0,231
426,00	0,232
426,50	0,232
427,00	0,231
427,50	0,230
428,00	0,229
428,50	0,228
429,00	0,228
429,50	0,227
430,00	0,226
430,50	0,226
431,00	0,225
431,50	0,225
432,00	0,225
432,50	0,225
433,00	0,226
433,50	0,226
434,00	0,226
434,50	0,226
435,00	0,226
435,50	0,226
436,00	0,225
436,50	0,225
437,00	0,224
437,50	0,223
438,00	0,222
438,50	0,223
439,00	0,223
439,50	0,223
440,00	0,223
440,50	0,223
441,00	0,222
441,50	0,222
442,00	0,221
442,50	0,222
443,00	0,221
443,50	0,221
444,00	0,222
444,50	0,222
445,00	0,222
445,50	0,223
446,00	0,222
446,50	0,223
447,00	0,222
447,50	0,221
448,00	0,220
448,50	0,220
449,00	0,220
449,50	0,220
450,00	0,219
450,50	0,219
451,00	0,219
451,50	0,220
452,00	0,221
452,50	0,221
453,00	0,221
453,50	0,222
454,00	0,220
454,50	0,221
455,00	0,221
455,50	0,221
456,00	0,221
456,50	0,222
457,00	0,222
457,50	0,221
458,00	0,221
458,50	0,221
459,00	0,221
459,50	0,220
460,00	0,219
460,50	0,219
461,00	0,220
461,50	0,220
462,00	0,220
462,50	0,221
463,00	0,222
463,50	0,222
464,00	0,223
464,50	0,223
465,00	0,223
465,50	0,223
466,00	0,223
466,50	0,222
467,00	0,222
467,50	0,221
468,00	0,222
468,50	0,223
469,00	0,224
469,50	0,224
470,00	0,224
470,50	0,225
471,00	0,224
471,50	0,225
472,00	0,225
472,50	0,225
473,00	0,225
473,50	0,226
474,00	0,226
474,50	0,226
475,00	0,227
475,50	0,228
476,00	0,228
476,50	0,229
477,00	0,229
477,50	0,229
478,00	0,230
478,50	0,232
479,00	0,233
479,50	0,234
480,00	0,234
480,50	0,235
481,00	0,236
481,50	0,237
482,00	0,238
482,50	0,239
483,00	0,240
483,50	0,240
484,00	0,240
484,50	0,240
485,00	0,240
485,50	0,241
486,00	0,243
486,50	0,244
487,00	0,246
487,50	0,246
488,00	0,247
488,50	0,248
489,00	0,250
489,50	0,251
490,00	0,253
490,50	0,255
491,00	0,257
491,50	0,257
492,00	0,259
492,50	0,260
493,00	0,263
493,50	0,265
494,00	0,268
494,50	0,270
495,00	0,271
495,50	0,273
496,00	0,275
496,50	0,277
497,00	0,279
497,50	0,281
498,00	0,283
498,50	0,285
499,00	0,286
499,50	0,287
500,00	0,289
500,50	0,291
501,00	0,294
501,50	0,297
502,00	0,300
502,50	0,302
503,00	0,304
503,50	0,307
504,00	0,309
504,50	0,311
505,00	0,314
505,50	0,317
506,00	0,319
506,50	0,321
507,00	0,323
507,50	0,325
508,00	0,327
508,50	0,329
509,00	0,331
509,50	0,333
510,00	0,335
510,50	0,337
511,00	0,340
511,50	0,342
512,00	0,344
512,50	0,346
513,00	0,349
513,50	0,350
514,00	0,352
514,50	0,353
515,00	0,355
515,50	0,357
516,00	0,357
516,50	0,358
517,00	0,360
517,50	0,360
518,00	0,362
518,50	0,363
519,00	0,365
519,50	0,366
520,00	0,367
520,50	0,369
521,00	0,371
521,50	0,373
522,00	0,374
522,50	0,377
523,00	0,378
523,50	0,379
524,00	0,380
524,50	0,381
525,00	0,381
525,50	0,381
526,00	0,382
526,50	0,382
527,00	0,382
527,50	0,381
528,00	0,380
528,50	0,381
529,00	0,382
529,50	0,382
530,00	0,382
530,50	0,382
531,00	0,382
531,50	0,381
532,00	0,381
532,50	0,380
533,00	0,379
533,50	0,379
534,00	0,378
534,50	0,377
535,00	0,376
535,50	0,375
536,00	0,375
536,50	0,375
537,00	0,374
537,50	0,374
538,00	0,375
538,50	0,375
539,00	0,374
539,50	0,374
540,00	0,373
540,50	0,373
541,00	0,372
541,50	0,371
542,00	0,370
542,50	0,369
543,00	0,368
543,50	0,367
544,00	0,366
544,50	0,364
545,00	0,363
545,50	0,362
546,00	0,361
546,50	0,359
547,00	0,358
547,50	0,358
548,00	0,357
548,50	0,356
549,00	0,355
549,50	0,354
550,00	0,353
550,50	0,352
551,00	0,351
551,50	0,350
552,00	0,349
552,50	0,348
553,00	0,347
553,50	0,346
554,00	0,344
554,50	0,343
555,00	0,342
555,50	0,341
556,00	0,339
556,50	0,337
557,00	0,336
557,50	0,335
558,00	0,333
558,50	0,332
559,00	0,330
559,50	0,329
560,00	0,329
560,50	0,328
561,00	0,326
561,50	0,324
562,00	0,322
562,50	0,321
563,00	0,320
563,50	0,319
564,00	0,317
564,50	0,316
565,00	0,315
565,50	0,314
566,00	0,312
566,50	0,310
567,00	0,309
567,50	0,308
568,00	0,307
568,50	0,304
569,00	0,303
569,50	0,302
570,00	0,299
570,50	0,299
571,00	0,298
571,50	0,297
572,00	0,296
572,50	0,295
573,00	0,293
573,50	0,291
574,00	0,290
574,50	0,289
575,00	0,288
575,50	0,286
576,00	0,285
576,50	0,283
577,00	0,283
577,50	0,281
578,00	0,279
578,50	0,278
579,00	0,276
579,50	0,274
580,00	0,273
580,50	0,272
581,00	0,270
581,50	0,269
582,00	0,268
582,50	0,267
583,00	0,266
583,50	0,265
584,00	0,263
584,50	0,262
585,00	0,260
585,50	0,258
586,00	0,256
586,50	0,253
587,00	0,252
587,50	0,250
588,00	0,249
588,50	0,248
589,00	0,247
589,50	0,246
590,00	0,245
590,50	0,245
591,00	0,244
591,50	0,242
592,00	0,240
592,50	0,239
593,00	0,237
593,50	0,235
594,00	0,233
594,50	0,232
595,00	0,230
595,50	0,229
596,00	0,228
596,50	0,227
597,00	0,226
597,50	0,225
598,00	0,224
598,50	0,222
599,00	0,221
599,50	0,219
600,00	0,218
600,50	0,217
601,00	0,215
601,50	0,213
602,00	0,212
602,50	0,211
603,00	0,209
603,50	0,208
604,00	0,207
604,50	0,206
605,00	0,204
605,50	0,203
606,00	0,202
606,50	0,201
607,00	0,201
607,50	0,200
608,00	0,199
608,50	0,198
609,00	0,197
609,50	0,195
610,00	0,194
610,50	0,193
611,00	0,192
611,50	0,192
612,00	0,191
612,50	0,189
613,00	0,187
613,50	0,187
614,00	0,186
614,50	0,185
615,00	0,185
615,50	0,183
616,00	0,182
616,50	0,180
617,00	0,179
617,50	0,177
618,00	0,176
618,50	0,175
619,00	0,174
619,50	0,173
620,00	0,172
620,50	0,171
621,00	0,171
621,50	0,171
622,00	0,171
622,50	0,170
623,00	0,169
623,50	0,169
624,00	0,168
624,50	0,167
625,00	0,166
625,50	0,164
626,00	0,164
626,50	0,162
627,00	0,162
627,50	0,160
628,00	0,159
628,50	0,159
629,00	0,159
629,50	0,158
630,00	0,157
630,50	0,156
631,00	0,155
631,50	0,154
632,00	0,154
632,50	0,154
633,00	0,153
633,50	0,152
634,00	0,151
634,50	0,151
635,00	0,150
635,50	0,149
636,00	0,148
636,50	0,147
637,00	0,147
637,50	0,145
638,00	0,145
638,50	0,144
639,00	0,143
639,50	0,143
640,00	0,143
640,50	0,142
641,00	0,141
641,50	0,139
642,00	0,139
642,50	0,139
643,00	0,139
643,50	0,138
644,00	0,138
644,50	0,138
645,00	0,137
645,50	0,137
646,00	0,137
646,50	0,135
647,00	0,134
647,50	0,133
648,00	0,132
648,50	0,131
649,00	0,130
649,50	0,129
650,00	0,128
650,50	0,127
651,00	0,126
651,50	0,125
652,00	0,124
652,50	0,124
653,00	0,123
653,50	0,123
654,00	0,121
654,50	0,122
655,00	0,121
655,50	0,120
656,00	0,121
656,50	0,121
657,00	0,121
657,50	0,121
658,00	0,120
658,50	0,120
659,00	0,120
659,50	0,119
660,00	0,118
660,50	0,117
661,00	0,117
661,50	0,116
662,00	0,115
662,50	0,115
663,00	0,114
663,50	0,113
664,00	0,113
664,50	0,113
665,00	0,113
665,50	0,113
666,00	0,113
666,50	0,112
667,00	0,111
667,50	0,110
668,00	0,109
668,50	0,109
669,00	0,109
669,50	0,108
670,00	0,108
670,50	0,108
671,00	0,107
671,50	0,107
672,00	0,107
672,50	0,107
673,00	0,107
673,50	0,106
674,00	0,105
674,50	0,105
675,00	0,104
675,50	0,103
676,00	0,103
676,50	0,102
677,00	0,102
677,50	0,102
678,00	0,102
678,50	0,101
679,00	0,100
679,50	0,099
680,00	0,099
680,50	0,098
681,00	0,097
681,50	0,097
682,00	0,097
682,50	0,097
683,00	0,096
683,50	0,096
684,00	0,096
684,50	0,096
685,00	0,097
685,50	0,096
686,00	0,096
686,50	0,096
687,00	0,095
687,50	0,095
688,00	0,095
688,50	0,094
689,00	0,093
689,50	0,093
690,00	0,092
690,50	0,091
691,00	0,090
691,50	0,090
692,00	0,090
692,50	0,089
693,00	0,089
693,50	0,090
694,00	0,090
694,50	0,091
695,00	0,091
695,50	0,091
696,00	0,091
696,50	0,091
697,00	0,091
697,50	0,090
698,00	0,089
698,50	0,088
699,00	0,087
699,50	0,087
700,00	0,086
700,50	0,085
701,00	0,085
701,50	0,085
702,00	0,085
702,50	0,085
703,00	0,085
703,50	0,085
704,00	0,086
704,50	0,087
705,00	0,087
705,50	0,087
706,00	0,087
706,50	0,086
707,00	0,086
707,50	0,085
708,00	0,083
708,50	0,083
709,00	0,083
709,50	0,082
710,00	0,081
710,50	0,081
711,00	0,081
711,50	0,081
712,00	0,081
712,50	0,081
713,00	0,080
713,50	0,080
714,00	0,079
714,50	0,079
715,00	0,078
715,50	0,078
716,00	0,077
716,50	0,078
717,00	0,078
717,50	0,077
718,00	0,078
718,50	0,078
719,00	0,079
719,50	0,080
720,00	0,081
720,50	0,080
721,00	0,079
721,50	0,078
722,00	0,077
722,50	0,077
723,00	0,076
723,50	0,076
724,00	0,075
724,50	0,074
725,00	0,073
725,50	0,073
726,00	0,074
726,50	0,074
727,00	0,075
727,50	0,076
728,00	0,075
728,50	0,074
729,00	0,073
729,50	0,073
730,00	0,074
730,50	0,074
731,00	0,072
731,50	0,073
732,00	0,073
732,50	0,072
733,00	0,072
733,50	0,072
734,00	0,072
734,50	0,071
735,00	0,071
735,50	0,070
736,00	0,068
736,50	0,069
737,00	0,069
737,50	0,069
738,00	0,068
738,50	0,068
739,00	0,069
739,50	0,070
740,00	0,070
740,50	0,070
741,00	0,069
741,50	0,069
742,00	0,068
742,50	0,068
743,00	0,067
743,50	0,067
744,00	0,067
744,50	0,068
745,00	0,067
745,50	0,066
746,00	0,065
746,50	0,066
747,00	0,066
747,50	0,065
748,00	0,065
748,50	0,065
749,00	0,065
749,50	0,064
750,00	0,064
750,50	0,064
751,00	0,064
751,50	0,064
752,00	0,064
752,50	0,063
753,00	0,063
753,50	0,063
754,00	0,063
754,50	0,065
755,00	0,065
755,50	0,066
756,00	0,067
756,50	0,068
757,00	0,069
757,50	0,067
758,00	0,067
758,50	0,067
759,00	0,067
759,50	0,065
760,00	0,064
760,50	0,062
761,00	0,062
761,50	0,061
762,00	0,061
762,50	0,062
763,00	0,061
763,50	0,061
764,00	0,062
764,50	0,062
765,00	0,062
765,50	0,061
766,00	0,061
766,50	0,061
767,00	0,061
767,50	0,060
768,00	0,060
768,50	0,058
769,00	0,059
769,50	0,058
770,00	0,059
770,50	0,058
771,00	0,057
771,50	0,058
772,00	0,059
772,50	0,059
773,00	0,061
773,50	0,060
774,00	0,059
774,50	0,059
775,00	0,058
775,50	0,057
776,00	0,057
776,50	0,055
777,00	0,056
777,50	0,056
778,00	0,057
778,50	0,056
779,00	0,056
779,50	0,058
780,00	0,058
780,50	0,058
781,00	0,058
781,50	0,057
782,00	0,057
782,50	0,058
783,00	0,057
783,50	0,057
784,00	0,057
784,50	0,056
785,00	0,057
785,50	0,057
786,00	0,056
786,50	0,055
787,00	0,055
787,50	0,055
788,00	0,056
788,50	0,056
789,00	0,057
789,50	0,057
790,00	0,058
790,50	0,058
791,00	0,058
791,50	0,057
792,00	0,056
792,50	0,054
793,00	0,053
793,50	0,052
794,00	0,051
794,50	0,052
795,00	0,052
795,50	0,053
796,00	0,055
796,50	0,055
797,00	0,055
797,50	0,055
798,00	0,055
798,50	0,055
799,00	0,055
799,50	0,055
800,00	0,055